"","date","time","subject","blocknum_and_trialnum","trialcode","primestim","targetstim","correct","latency","latency_prob","proportion_fast_trials_amp","exclude_amp_performance","participant_count","exclude_participant"
"1","23.06.22",11:55:36,504546409,"2_2","prime_positive",1,61,0,161,FALSE,0,"include",8,"exclude"
"2","23.06.22",11:55:36,504546409,"2_3","prime_positive",2,4,0,328,FALSE,0,"include",8,"exclude"
"3","23.06.22",11:55:36,504546409,"2_4","prime_positive",4,54,1,220,FALSE,0,"include",8,"exclude"
"4","23.06.22",11:55:36,504546409,"2_5","prime_negative",1,33,1,308,FALSE,0,"include",8,"exclude"
"5","23.06.22",11:55:36,504546409,"2_6","prime_negative",3,71,1,235,FALSE,0,"include",8,"exclude"
"6","23.06.22",11:55:36,504546409,"2_7","prime_negative",4,37,1,224,FALSE,0,"include",8,"exclude"
"7","23.06.22",11:55:36,504546409,"2_8","prime_negative",2,19,0,369,FALSE,0,"include",8,"exclude"
"8","23.06.22",11:55:36,504546409,"2_9","prime_positive",4,56,1,1105,FALSE,0,"include",8,"exclude"
"9","23.06.22",12:23:51,994692692,"2_2","prime_positive",1,23,0,1611,FALSE,0,"include",72,"include"
"10","23.06.22",12:23:51,994692692,"2_3","prime_negative",3,33,0,627,FALSE,0,"include",72,"include"
"11","23.06.22",12:23:51,994692692,"2_4","prime_negative",4,21,1,865,FALSE,0,"include",72,"include"
"12","23.06.22",12:23:51,994692692,"2_5","prime_negative",1,60,1,766,FALSE,0,"include",72,"include"
"13","23.06.22",12:23:51,994692692,"2_6","prime_positive",2,30,0,582,FALSE,0,"include",72,"include"
"14","23.06.22",12:23:51,994692692,"2_7","prime_negative",1,16,0,495,FALSE,0,"include",72,"include"
"15","23.06.22",12:23:51,994692692,"2_8","prime_negative",4,61,1,869,FALSE,0,"include",72,"include"
"16","23.06.22",12:23:51,994692692,"2_9","prime_positive",3,24,0,699,FALSE,0,"include",72,"include"
"17","23.06.22",12:23:51,994692692,"2_10","prime_positive",3,11,1,971,FALSE,0,"include",72,"include"
"18","23.06.22",12:23:51,994692692,"2_11","prime_negative",2,56,0,588,FALSE,0,"include",72,"include"
"19","23.06.22",12:23:51,994692692,"2_12","prime_negative",3,28,0,587,FALSE,0,"include",72,"include"
"20","23.06.22",12:23:51,994692692,"2_13","prime_negative",4,68,1,615,FALSE,0,"include",72,"include"
"21","23.06.22",12:23:51,994692692,"2_14","prime_positive",4,38,1,804,FALSE,0,"include",72,"include"
"22","23.06.22",12:23:51,994692692,"2_15","prime_negative",3,6,0,297,FALSE,0,"include",72,"include"
"23","23.06.22",12:23:51,994692692,"2_16","prime_negative",1,39,0,587,FALSE,0,"include",72,"include"
"24","23.06.22",12:23:51,994692692,"2_17","prime_negative",2,66,0,617,FALSE,0,"include",72,"include"
"25","23.06.22",12:23:51,994692692,"2_18","prime_positive",1,53,1,536,FALSE,0,"include",72,"include"
"26","23.06.22",12:23:51,994692692,"2_19","prime_positive",2,46,1,684,FALSE,0,"include",72,"include"
"27","23.06.22",12:23:51,994692692,"2_20","prime_negative",2,70,0,515,FALSE,0,"include",72,"include"
"28","23.06.22",12:23:51,994692692,"2_21","prime_negative",3,55,0,448,FALSE,0,"include",72,"include"
"29","23.06.22",12:23:51,994692692,"2_22","prime_negative",4,59,1,490,FALSE,0,"include",72,"include"
"30","23.06.22",12:23:51,994692692,"2_23","prime_positive",3,3,1,628,FALSE,0,"include",72,"include"
"31","23.06.22",12:23:51,994692692,"2_24","prime_negative",1,13,0,421,FALSE,0,"include",72,"include"
"32","23.06.22",12:23:51,994692692,"2_25","prime_positive",1,12,1,470,FALSE,0,"include",72,"include"
"33","23.06.22",12:23:51,994692692,"2_26","prime_negative",2,45,1,733,FALSE,0,"include",72,"include"
"34","23.06.22",12:23:51,994692692,"2_27","prime_positive",4,18,1,547,FALSE,0,"include",72,"include"
"35","23.06.22",12:23:51,994692692,"2_28","prime_positive",2,19,1,503,FALSE,0,"include",72,"include"
"36","23.06.22",12:23:51,994692692,"2_29","prime_negative",1,31,0,487,FALSE,0,"include",72,"include"
"37","23.06.22",12:23:51,994692692,"2_30","prime_positive",3,15,1,347,FALSE,0,"include",72,"include"
"38","23.06.22",12:23:51,994692692,"2_31","prime_negative",4,62,1,1008,FALSE,0,"include",72,"include"
"39","23.06.22",12:23:51,994692692,"2_32","prime_negative",3,29,0,316,FALSE,0,"include",72,"include"
"40","23.06.22",12:23:51,994692692,"2_33","prime_positive",4,48,1,492,FALSE,0,"include",72,"include"
"41","23.06.22",12:23:51,994692692,"2_34","prime_positive",2,69,1,492,FALSE,0,"include",72,"include"
"42","23.06.22",12:23:51,994692692,"2_35","prime_negative",4,57,0,533,FALSE,0,"include",72,"include"
"43","23.06.22",12:23:51,994692692,"2_36","prime_negative",1,35,0,443,FALSE,0,"include",72,"include"
"44","23.06.22",12:23:51,994692692,"2_37","prime_positive",1,14,1,545,FALSE,0,"include",72,"include"
"45","23.06.22",12:23:51,994692692,"2_38","prime_negative",2,2,1,848,FALSE,0,"include",72,"include"
"46","23.06.22",12:23:51,994692692,"2_39","prime_negative",3,52,0,408,FALSE,0,"include",72,"include"
"47","23.06.22",12:23:51,994692692,"2_40","prime_positive",2,51,1,546,FALSE,0,"include",72,"include"
"48","23.06.22",12:23:51,994692692,"2_41","prime_positive",1,41,1,508,FALSE,0,"include",72,"include"
"49","23.06.22",12:23:51,994692692,"2_42","prime_negative",4,72,0,654,FALSE,0,"include",72,"include"
"50","23.06.22",12:23:51,994692692,"2_43","prime_positive",3,36,1,423,FALSE,0,"include",72,"include"
"51","23.06.22",12:23:51,994692692,"2_44","prime_positive",4,42,1,614,FALSE,0,"include",72,"include"
"52","23.06.22",12:23:51,994692692,"2_45","prime_positive",1,27,1,485,FALSE,0,"include",72,"include"
"53","23.06.22",12:23:51,994692692,"2_46","prime_positive",4,64,1,1424,FALSE,0,"include",72,"include"
"54","23.06.22",12:23:51,994692692,"2_47","prime_positive",2,63,1,684,FALSE,0,"include",72,"include"
"55","23.06.22",12:23:51,994692692,"2_48","prime_positive",3,50,1,732,FALSE,0,"include",72,"include"
"56","23.06.22",12:23:51,994692692,"2_49","prime_positive",1,25,1,656,FALSE,0,"include",72,"include"
"57","23.06.22",12:23:51,994692692,"2_50","prime_negative",2,26,0,387,FALSE,0,"include",72,"include"
"58","23.06.22",12:23:51,994692692,"2_51","prime_positive",4,71,1,499,FALSE,0,"include",72,"include"
"59","23.06.22",12:23:51,994692692,"2_52","prime_negative",1,65,0,410,FALSE,0,"include",72,"include"
"60","23.06.22",12:23:51,994692692,"2_53","prime_positive",3,9,1,402,FALSE,0,"include",72,"include"
"61","23.06.22",12:23:51,994692692,"2_54","prime_negative",3,20,0,438,FALSE,0,"include",72,"include"
"62","23.06.22",12:23:51,994692692,"2_55","prime_positive",2,44,1,454,FALSE,0,"include",72,"include"
"63","23.06.22",12:23:51,994692692,"2_56","prime_positive",2,54,1,793,FALSE,0,"include",72,"include"
"64","23.06.22",12:23:51,994692692,"2_57","prime_positive",4,34,1,577,FALSE,0,"include",72,"include"
"65","23.06.22",12:23:51,994692692,"2_58","prime_negative",4,37,1,534,FALSE,0,"include",72,"include"
"66","23.06.22",12:23:51,994692692,"2_59","prime_negative",1,58,0,236,FALSE,0,"include",72,"include"
"67","23.06.22",12:23:51,994692692,"2_60","prime_negative",3,43,0,376,FALSE,0,"include",72,"include"
"68","23.06.22",12:23:51,994692692,"2_61","prime_negative",2,17,0,550,FALSE,0,"include",72,"include"
"69","23.06.22",12:23:51,994692692,"2_62","prime_negative",1,47,0,533,FALSE,0,"include",72,"include"
"70","23.06.22",12:23:51,994692692,"2_63","prime_positive",1,5,1,457,FALSE,0,"include",72,"include"
"71","23.06.22",12:23:51,994692692,"2_64","prime_positive",3,56,1,481,FALSE,0,"include",72,"include"
"72","23.06.22",12:23:51,994692692,"2_65","prime_positive",1,43,1,1368,FALSE,0,"include",72,"include"
"73","23.06.22",12:23:51,994692692,"2_66","prime_negative",2,32,1,606,FALSE,0,"include",72,"include"
"74","23.06.22",12:23:51,994692692,"2_67","prime_positive",2,11,1,421,FALSE,0,"include",72,"include"
"75","23.06.22",12:23:51,994692692,"2_68","prime_negative",3,6,0,357,FALSE,0,"include",72,"include"
"76","23.06.22",12:23:51,994692692,"2_69","prime_positive",3,69,1,564,FALSE,0,"include",72,"include"
"77","23.06.22",12:23:51,994692692,"2_70","prime_negative",4,7,1,780,FALSE,0,"include",72,"include"
"78","23.06.22",12:23:51,994692692,"2_71","prime_positive",4,33,1,4696,FALSE,0,"include",72,"include"
"79","23.06.22",12:23:51,994692692,"2_72","prime_positive",3,40,1,372,FALSE,0,"include",72,"include"
"80","23.06.22",12:23:51,994692692,"2_73","prime_negative",2,66,0,377,FALSE,0,"include",72,"include"
"81","23.06.22",12:28:35,246532124,"2_2","prime_positive",2,28,1,1344,FALSE,0.00694444444444444,"include",144,"exclude"
"82","23.06.22",12:28:35,246532124,"2_3","prime_positive",3,63,1,769,FALSE,0.00694444444444444,"include",144,"exclude"
"83","23.06.22",12:28:35,246532124,"2_4","prime_positive",1,13,1,636,FALSE,0.00694444444444444,"include",144,"exclude"
"84","23.06.22",12:28:35,246532124,"2_5","prime_positive",4,60,1,502,FALSE,0.00694444444444444,"include",144,"exclude"
"85","23.06.22",12:28:35,246532124,"2_6","prime_negative",3,57,1,670,FALSE,0.00694444444444444,"include",144,"exclude"
"86","23.06.22",12:28:35,246532124,"2_7","prime_positive",1,44,1,569,FALSE,0.00694444444444444,"include",144,"exclude"
"87","23.06.22",12:28:35,246532124,"2_8","prime_negative",1,45,1,695,FALSE,0.00694444444444444,"include",144,"exclude"
"88","23.06.22",12:28:35,246532124,"2_9","prime_negative",4,12,1,752,FALSE,0.00694444444444444,"include",144,"exclude"
"89","23.06.22",12:28:35,246532124,"2_10","prime_negative",2,62,1,1129,FALSE,0.00694444444444444,"include",144,"exclude"
"90","23.06.22",12:28:35,246532124,"2_11","prime_positive",2,39,1,653,FALSE,0.00694444444444444,"include",144,"exclude"
"91","23.06.22",12:28:35,246532124,"2_12","prime_positive",3,72,1,620,FALSE,0.00694444444444444,"include",144,"exclude"
"92","23.06.22",12:28:35,246532124,"2_13","prime_positive",4,2,1,444,FALSE,0.00694444444444444,"include",144,"exclude"
"93","23.06.22",12:28:35,246532124,"2_14","prime_positive",3,4,1,403,FALSE,0.00694444444444444,"include",144,"exclude"
"94","23.06.22",12:28:35,246532124,"2_15","prime_positive",1,67,1,386,FALSE,0.00694444444444444,"include",144,"exclude"
"95","23.06.22",12:28:35,246532124,"2_16","prime_negative",4,29,1,769,FALSE,0.00694444444444444,"include",144,"exclude"
"96","23.06.22",12:28:35,246532124,"2_17","prime_negative",3,65,1,628,FALSE,0.00694444444444444,"include",144,"exclude"
"97","23.06.22",12:28:35,246532124,"2_18","prime_negative",1,1,1,794,FALSE,0.00694444444444444,"include",144,"exclude"
"98","23.06.22",12:28:35,246532124,"2_19","prime_negative",1,7,0,1338,FALSE,0.00694444444444444,"include",144,"exclude"
"99","23.06.22",12:28:35,246532124,"2_20","prime_negative",4,70,1,611,FALSE,0.00694444444444444,"include",144,"exclude"
"100","23.06.22",12:28:35,246532124,"2_21","prime_positive",2,54,1,794,FALSE,0.00694444444444444,"include",144,"exclude"
"101","23.06.22",12:28:35,246532124,"2_22","prime_positive",4,6,1,453,FALSE,0.00694444444444444,"include",144,"exclude"
"102","23.06.22",12:28:35,246532124,"2_23","prime_negative",2,23,1,1246,FALSE,0.00694444444444444,"include",144,"exclude"
"103","23.06.22",12:28:35,246532124,"2_24","prime_negative",3,26,1,1388,FALSE,0.00694444444444444,"include",144,"exclude"
"104","23.06.22",12:28:35,246532124,"2_25","prime_negative",1,22,0,770,FALSE,0.00694444444444444,"include",144,"exclude"
"105","23.06.22",12:28:35,246532124,"2_26","prime_negative",3,38,1,528,FALSE,0.00694444444444444,"include",144,"exclude"
"106","23.06.22",12:28:35,246532124,"2_27","prime_negative",4,9,1,477,FALSE,0.00694444444444444,"include",144,"exclude"
"107","23.06.22",12:28:35,246532124,"2_28","prime_negative",2,16,1,1537,FALSE,0.00694444444444444,"include",144,"exclude"
"108","23.06.22",12:28:35,246532124,"2_29","prime_positive",2,52,1,485,FALSE,0.00694444444444444,"include",144,"exclude"
"109","23.06.22",12:28:35,246532124,"2_30","prime_positive",3,18,1,403,FALSE,0.00694444444444444,"include",144,"exclude"
"110","23.06.22",12:28:35,246532124,"2_31","prime_negative",1,51,0,594,FALSE,0.00694444444444444,"include",144,"exclude"
"111","23.06.22",12:28:35,246532124,"2_32","prime_positive",1,40,1,293,FALSE,0.00694444444444444,"include",144,"exclude"
"112","23.06.22",12:28:35,246532124,"2_33","prime_positive",4,46,1,243,FALSE,0.00694444444444444,"include",144,"exclude"
"113","23.06.22",12:28:35,246532124,"2_34","prime_negative",2,30,1,802,FALSE,0.00694444444444444,"include",144,"exclude"
"114","23.06.22",12:28:35,246532124,"2_35","prime_positive",1,53,1,561,FALSE,0.00694444444444444,"include",144,"exclude"
"115","23.06.22",12:28:35,246532124,"2_36","prime_negative",3,17,1,444,FALSE,0.00694444444444444,"include",144,"exclude"
"116","23.06.22",12:28:35,246532124,"2_37","prime_negative",4,25,1,243,FALSE,0.00694444444444444,"include",144,"exclude"
"117","23.06.22",12:28:35,246532124,"2_38","prime_positive",3,20,1,693,FALSE,0.00694444444444444,"include",144,"exclude"
"118","23.06.22",12:28:35,246532124,"2_39","prime_positive",2,47,1,353,FALSE,0.00694444444444444,"include",144,"exclude"
"119","23.06.22",12:28:35,246532124,"2_40","prime_positive",2,14,1,386,FALSE,0.00694444444444444,"include",144,"exclude"
"120","23.06.22",12:28:35,246532124,"2_41","prime_positive",1,64,1,653,FALSE,0.00694444444444444,"include",144,"exclude"
"121","23.06.22",12:28:35,246532124,"2_42","prime_negative",3,24,1,1262,FALSE,0.00694444444444444,"include",144,"exclude"
"122","23.06.22",12:28:35,246532124,"2_43","prime_negative",2,66,1,635,FALSE,0.00694444444444444,"include",144,"exclude"
"123","23.06.22",12:28:35,246532124,"2_44","prime_negative",1,42,1,1203,FALSE,0.00694444444444444,"include",144,"exclude"
"124","23.06.22",12:28:35,246532124,"2_45","prime_negative",4,68,1,469,FALSE,0.00694444444444444,"include",144,"exclude"
"125","23.06.22",12:28:35,246532124,"2_46","prime_negative",4,34,1,969,FALSE,0.00694444444444444,"include",144,"exclude"
"126","23.06.22",12:28:35,246532124,"2_47","prime_positive",3,49,1,636,FALSE,0.00694444444444444,"include",144,"exclude"
"127","23.06.22",12:28:35,246532124,"2_48","prime_negative",1,19,0,1254,FALSE,0.00694444444444444,"include",144,"exclude"
"128","23.06.22",12:28:35,246532124,"2_49","prime_positive",4,37,1,535,FALSE,0.00694444444444444,"include",144,"exclude"
"129","23.06.22",12:28:35,246532124,"2_50","prime_negative",3,50,1,570,FALSE,0.00694444444444444,"include",144,"exclude"
"130","23.06.22",12:28:35,246532124,"2_51","prime_positive",2,5,1,561,FALSE,0.00694444444444444,"include",144,"exclude"
"131","23.06.22",12:28:35,246532124,"2_52","prime_positive",1,31,1,527,FALSE,0.00694444444444444,"include",144,"exclude"
"132","23.06.22",12:28:35,246532124,"2_53","prime_negative",2,3,1,778,FALSE,0.00694444444444444,"include",144,"exclude"
"133","23.06.22",12:28:35,246532124,"2_54","prime_negative",3,33,0,895,FALSE,0.00694444444444444,"include",144,"exclude"
"134","23.06.22",12:28:35,246532124,"2_55","prime_positive",4,56,1,627,FALSE,0.00694444444444444,"include",144,"exclude"
"135","23.06.22",12:28:35,246532124,"2_56","prime_negative",2,11,0,920,FALSE,0.00694444444444444,"include",144,"exclude"
"136","23.06.22",12:28:35,246532124,"2_57","prime_negative",4,21,1,637,FALSE,0.00694444444444444,"include",144,"exclude"
"137","23.06.22",12:28:35,246532124,"2_58","prime_positive",3,10,1,628,FALSE,0.00694444444444444,"include",144,"exclude"
"138","23.06.22",12:28:35,246532124,"2_59","prime_positive",2,48,1,460,FALSE,0.00694444444444444,"include",144,"exclude"
"139","23.06.22",12:28:35,246532124,"2_60","prime_positive",1,36,1,437,FALSE,0.00694444444444444,"include",144,"exclude"
"140","23.06.22",12:28:35,246532124,"2_61","prime_positive",3,71,1,402,FALSE,0.00694444444444444,"include",144,"exclude"
"141","23.06.22",12:28:35,246532124,"2_62","prime_positive",4,43,1,486,FALSE,0.00694444444444444,"include",144,"exclude"
"142","23.06.22",12:28:35,246532124,"2_63","prime_negative",1,8,1,2019,FALSE,0.00694444444444444,"include",144,"exclude"
"143","23.06.22",12:28:35,246532124,"2_64","prime_negative",1,50,1,986,FALSE,0.00694444444444444,"include",144,"exclude"
"144","23.06.22",12:28:35,246532124,"2_65","prime_positive",2,39,0,1062,FALSE,0.00694444444444444,"include",144,"exclude"
"145","23.06.22",12:28:35,246532124,"2_66","prime_positive",3,24,1,828,FALSE,0.00694444444444444,"include",144,"exclude"
"146","23.06.22",12:28:35,246532124,"2_67","prime_positive",4,28,1,561,FALSE,0.00694444444444444,"include",144,"exclude"
"147","23.06.22",12:28:35,246532124,"2_68","prime_positive",1,63,1,419,FALSE,0.00694444444444444,"include",144,"exclude"
"148","23.06.22",12:28:35,246532124,"2_69","prime_negative",4,17,0,961,FALSE,0.00694444444444444,"include",144,"exclude"
"149","23.06.22",12:28:35,246532124,"2_70","prime_positive",2,11,1,419,FALSE,0.00694444444444444,"include",144,"exclude"
"150","23.06.22",12:28:35,246532124,"2_71","prime_negative",3,16,1,536,FALSE,0.00694444444444444,"include",144,"exclude"
"151","23.06.22",12:28:35,246532124,"2_72","prime_negative",2,58,1,494,FALSE,0.00694444444444444,"include",144,"exclude"
"152","23.06.22",12:28:35,246532124,"2_73","prime_negative",3,3,1,1044,FALSE,0.00694444444444444,"include",144,"exclude"
"153","23.06.22",12:32:49,246532124,"2_2","prime_negative",1,11,1,417,FALSE,0.00694444444444444,"include",144,"exclude"
"154","23.06.22",12:32:49,246532124,"2_3","prime_negative",3,62,1,217,FALSE,0.00694444444444444,"include",144,"exclude"
"155","23.06.22",12:32:49,246532124,"2_4","prime_positive",4,28,1,210,FALSE,0.00694444444444444,"include",144,"exclude"
"156","23.06.22",12:32:49,246532124,"2_5","prime_negative",2,26,1,219,FALSE,0.00694444444444444,"include",144,"exclude"
"157","23.06.22",12:32:49,246532124,"2_6","prime_negative",2,68,1,145,FALSE,0.00694444444444444,"include",144,"exclude"
"158","23.06.22",12:32:49,246532124,"2_7","prime_positive",3,22,1,226,FALSE,0.00694444444444444,"include",144,"exclude"
"159","23.06.22",12:32:49,246532124,"2_8","prime_negative",4,12,1,202,FALSE,0.00694444444444444,"include",144,"exclude"
"160","23.06.22",12:32:49,246532124,"2_9","prime_positive",2,40,1,201,FALSE,0.00694444444444444,"include",144,"exclude"
"161","23.06.22",12:32:49,246532124,"2_10","prime_negative",1,57,1,193,FALSE,0.00694444444444444,"include",144,"exclude"
"162","23.06.22",12:32:49,246532124,"2_11","prime_positive",3,5,1,193,FALSE,0.00694444444444444,"include",144,"exclude"
"163","23.06.22",12:32:49,246532124,"2_12","prime_positive",2,39,1,193,FALSE,0.00694444444444444,"include",144,"exclude"
"164","23.06.22",12:32:49,246532124,"2_13","prime_negative",3,32,1,234,FALSE,0.00694444444444444,"include",144,"exclude"
"165","23.06.22",12:32:49,246532124,"2_14","prime_negative",4,45,1,235,FALSE,0.00694444444444444,"include",144,"exclude"
"166","23.06.22",12:32:49,246532124,"2_15","prime_positive",1,69,1,193,FALSE,0.00694444444444444,"include",144,"exclude"
"167","23.06.22",12:32:49,246532124,"2_16","prime_positive",4,10,1,261,FALSE,0.00694444444444444,"include",144,"exclude"
"168","23.06.22",12:32:49,246532124,"2_17","prime_positive",4,29,1,261,FALSE,0.00694444444444444,"include",144,"exclude"
"169","23.06.22",12:32:49,246532124,"2_18","prime_negative",1,27,1,402,FALSE,0.00694444444444444,"include",144,"exclude"
"170","23.06.22",12:32:49,246532124,"2_19","prime_negative",3,21,1,303,FALSE,0.00694444444444444,"include",144,"exclude"
"171","23.06.22",12:32:49,246532124,"2_20","prime_positive",1,16,1,192,FALSE,0.00694444444444444,"include",144,"exclude"
"172","23.06.22",12:32:49,246532124,"2_21","prime_positive",3,38,1,222,FALSE,0.00694444444444444,"include",144,"exclude"
"173","23.06.22",12:32:49,246532124,"2_22","prime_positive",2,44,1,311,FALSE,0.00694444444444444,"include",144,"exclude"
"174","23.06.22",12:32:49,246532124,"2_23","prime_positive",1,47,1,202,FALSE,0.00694444444444444,"include",144,"exclude"
"175","23.06.22",12:32:49,246532124,"2_24","prime_positive",4,25,1,259,FALSE,0.00694444444444444,"include",144,"exclude"
"176","23.06.22",12:32:49,246532124,"2_25","prime_negative",2,36,0,636,FALSE,0.00694444444444444,"include",144,"exclude"
"177","23.06.22",12:32:49,246532124,"2_26","prime_negative",3,8,1,395,FALSE,0.00694444444444444,"include",144,"exclude"
"178","23.06.22",12:32:49,246532124,"2_27","prime_positive",3,63,1,319,FALSE,0.00694444444444444,"include",144,"exclude"
"179","23.06.22",12:32:49,246532124,"2_28","prime_negative",2,13,1,159,FALSE,0.00694444444444444,"include",144,"exclude"
"180","23.06.22",12:32:49,246532124,"2_29","prime_negative",4,49,1,218,FALSE,0.00694444444444444,"include",144,"exclude"
"181","23.06.22",12:32:49,246532124,"2_30","prime_positive",2,46,1,218,FALSE,0.00694444444444444,"include",144,"exclude"
"182","23.06.22",12:32:49,246532124,"2_31","prime_negative",1,52,1,218,FALSE,0.00694444444444444,"include",144,"exclude"
"183","23.06.22",12:32:49,246532124,"2_32","prime_positive",1,53,1,226,FALSE,0.00694444444444444,"include",144,"exclude"
"184","23.06.22",12:32:49,246532124,"2_33","prime_negative",3,51,1,184,FALSE,0.00694444444444444,"include",144,"exclude"
"185","23.06.22",12:32:49,246532124,"2_34","prime_positive",3,55,1,193,FALSE,0.00694444444444444,"include",144,"exclude"
"186","23.06.22",12:32:49,246532124,"2_35","prime_positive",4,1,1,218,FALSE,0.00694444444444444,"include",144,"exclude"
"187","23.06.22",12:32:49,246532124,"2_36","prime_negative",2,24,1,177,FALSE,0.00694444444444444,"include",144,"exclude"
"188","23.06.22",12:32:49,246532124,"2_37","prime_positive",2,6,1,235,FALSE,0.00694444444444444,"include",144,"exclude"
"189","23.06.22",12:32:49,246532124,"2_38","prime_positive",1,35,1,218,FALSE,0.00694444444444444,"include",144,"exclude"
"190","23.06.22",12:32:49,246532124,"2_39","prime_negative",4,15,1,218,FALSE,0.00694444444444444,"include",144,"exclude"
"191","23.06.22",12:32:49,246532124,"2_40","prime_negative",1,50,1,201,FALSE,0.00694444444444444,"include",144,"exclude"
"192","23.06.22",12:32:49,246532124,"2_41","prime_positive",3,64,1,277,FALSE,0.00694444444444444,"include",144,"exclude"
"193","23.06.22",12:32:49,246532124,"2_42","prime_negative",3,67,1,168,FALSE,0.00694444444444444,"include",144,"exclude"
"194","23.06.22",12:32:49,246532124,"2_43","prime_negative",2,9,1,136,FALSE,0.00694444444444444,"include",144,"exclude"
"195","23.06.22",12:32:49,246532124,"2_44","prime_positive",2,37,1,1052,FALSE,0.00694444444444444,"include",144,"exclude"
"196","23.06.22",12:32:49,246532124,"2_45","prime_negative",1,54,1,352,FALSE,0.00694444444444444,"include",144,"exclude"
"197","23.06.22",12:32:49,246532124,"2_46","prime_positive",4,33,1,201,FALSE,0.00694444444444444,"include",144,"exclude"
"198","23.06.22",12:32:49,246532124,"2_47","prime_negative",4,58,1,394,FALSE,0.00694444444444444,"include",144,"exclude"
"199","23.06.22",12:32:49,246532124,"2_48","prime_positive",1,70,1,293,FALSE,0.00694444444444444,"include",144,"exclude"
"200","23.06.22",12:32:49,246532124,"2_49","prime_negative",3,41,1,201,FALSE,0.00694444444444444,"include",144,"exclude"
"201","23.06.22",12:32:49,246532124,"2_50","prime_positive",2,71,1,167,FALSE,0.00694444444444444,"include",144,"exclude"
"202","23.06.22",12:32:49,246532124,"2_51","prime_positive",3,42,1,168,FALSE,0.00694444444444444,"include",144,"exclude"
"203","23.06.22",12:32:49,246532124,"2_52","prime_negative",2,61,1,219,FALSE,0.00694444444444444,"include",144,"exclude"
"204","23.06.22",12:32:49,246532124,"2_53","prime_negative",1,2,1,202,FALSE,0.00694444444444444,"include",144,"exclude"
"205","23.06.22",12:32:49,246532124,"2_54","prime_positive",4,56,1,251,FALSE,0.00694444444444444,"include",144,"exclude"
"206","23.06.22",12:32:49,246532124,"2_55","prime_negative",4,65,1,318,FALSE,0.00694444444444444,"include",144,"exclude"
"207","23.06.22",12:32:49,246532124,"2_56","prime_negative",4,30,1,201,FALSE,0.00694444444444444,"include",144,"exclude"
"208","23.06.22",12:32:49,246532124,"2_57","prime_positive",4,19,1,226,FALSE,0.00694444444444444,"include",144,"exclude"
"209","23.06.22",12:32:49,246532124,"2_58","prime_negative",1,20,1,200,FALSE,0.00694444444444444,"include",144,"exclude"
"210","23.06.22",12:32:49,246532124,"2_59","prime_negative",3,18,1,192,FALSE,0.00694444444444444,"include",144,"exclude"
"211","23.06.22",12:32:49,246532124,"2_60","prime_negative",2,7,1,201,FALSE,0.00694444444444444,"include",144,"exclude"
"212","23.06.22",12:32:49,246532124,"2_61","prime_negative",3,4,1,26,TRUE,0.00694444444444444,"include",144,"exclude"
"213","23.06.22",12:32:49,246532124,"2_62","prime_positive",1,48,1,167,FALSE,0.00694444444444444,"include",144,"exclude"
"214","23.06.22",12:32:49,246532124,"2_63","prime_positive",3,23,1,251,FALSE,0.00694444444444444,"include",144,"exclude"
"215","23.06.22",12:32:49,246532124,"2_64","prime_positive",2,8,1,420,FALSE,0.00694444444444444,"include",144,"exclude"
"216","23.06.22",12:32:49,246532124,"2_65","prime_positive",4,10,1,378,FALSE,0.00694444444444444,"include",144,"exclude"
"217","23.06.22",12:32:49,246532124,"2_66","prime_positive",3,30,1,235,FALSE,0.00694444444444444,"include",144,"exclude"
"218","23.06.22",12:32:49,246532124,"2_67","prime_positive",2,57,1,227,FALSE,0.00694444444444444,"include",144,"exclude"
"219","23.06.22",12:32:49,246532124,"2_68","prime_positive",1,26,1,251,FALSE,0.00694444444444444,"include",144,"exclude"
"220","23.06.22",12:32:49,246532124,"2_69","prime_negative",1,2,1,235,FALSE,0.00694444444444444,"include",144,"exclude"
"221","23.06.22",12:32:49,246532124,"2_70","prime_negative",4,20,1,226,FALSE,0.00694444444444444,"include",144,"exclude"
"222","23.06.22",12:32:49,246532124,"2_71","prime_positive",4,38,1,193,FALSE,0.00694444444444444,"include",144,"exclude"
"223","23.06.22",12:32:49,246532124,"2_72","prime_negative",2,14,1,243,FALSE,0.00694444444444444,"include",144,"exclude"
"224","23.06.22",12:32:49,246532124,"2_73","prime_negative",2,51,1,269,FALSE,0.00694444444444444,"include",144,"exclude"
"225","23.06.22",12:35:27,469672453,"2_2","prime_negative",2,9,1,1145,FALSE,0,"include",72,"include"
"226","23.06.22",12:35:27,469672453,"2_3","prime_positive",4,26,1,867,FALSE,0,"include",72,"include"
"227","23.06.22",12:35:27,469672453,"2_4","prime_negative",4,48,1,1252,FALSE,0,"include",72,"include"
"228","23.06.22",12:35:27,469672453,"2_5","prime_negative",3,13,1,824,FALSE,0,"include",72,"include"
"229","23.06.22",12:35:27,469672453,"2_6","prime_negative",2,22,1,452,FALSE,0,"include",72,"include"
"230","23.06.22",12:35:27,469672453,"2_7","prime_negative",3,53,1,461,FALSE,0,"include",72,"include"
"231","23.06.22",12:35:27,469672453,"2_8","prime_negative",1,38,1,513,FALSE,0,"include",72,"include"
"232","23.06.22",12:35:27,469672453,"2_9","prime_negative",4,18,0,880,FALSE,0,"include",72,"include"
"233","23.06.22",12:35:27,469672453,"2_10","prime_negative",2,72,0,1317,FALSE,0,"include",72,"include"
"234","23.06.22",12:35:27,469672453,"2_11","prime_negative",4,36,0,557,FALSE,0,"include",72,"include"
"235","23.06.22",12:35:27,469672453,"2_12","prime_positive",2,39,0,2754,FALSE,0,"include",72,"include"
"236","23.06.22",12:35:27,469672453,"2_13","prime_negative",1,51,1,714,FALSE,0,"include",72,"include"
"237","23.06.22",12:35:27,469672453,"2_14","prime_negative",3,65,1,579,FALSE,0,"include",72,"include"
"238","23.06.22",12:35:27,469672453,"2_15","prime_negative",4,37,0,1023,FALSE,0,"include",72,"include"
"239","23.06.22",12:35:27,469672453,"2_16","prime_positive",3,5,0,827,FALSE,0,"include",72,"include"
"240","23.06.22",12:35:27,469672453,"2_17","prime_positive",3,32,0,430,FALSE,0,"include",72,"include"
"241","23.06.22",12:35:27,469672453,"2_18","prime_negative",3,29,1,714,FALSE,0,"include",72,"include"
"242","23.06.22",12:35:27,469672453,"2_19","prime_positive",1,63,0,1027,FALSE,0,"include",72,"include"
"243","23.06.22",12:35:27,469672453,"2_20","prime_negative",1,44,1,1853,FALSE,0,"include",72,"include"
"244","23.06.22",12:35:27,469672453,"2_21","prime_negative",2,62,1,1207,FALSE,0,"include",72,"include"
"245","23.06.22",12:35:27,469672453,"2_22","prime_positive",4,20,1,439,FALSE,0,"include",72,"include"
"246","23.06.22",12:35:27,469672453,"2_23","prime_negative",1,19,1,344,FALSE,0,"include",72,"include"
"247","23.06.22",12:35:27,469672453,"2_24","prime_positive",2,1,0,446,FALSE,0,"include",72,"include"
"248","23.06.22",12:35:27,469672453,"2_25","prime_negative",4,66,1,1272,FALSE,0,"include",72,"include"
"249","23.06.22",12:35:27,469672453,"2_26","prime_negative",3,4,1,536,FALSE,0,"include",72,"include"
"250","23.06.22",12:35:27,469672453,"2_27","prime_negative",2,45,1,663,FALSE,0,"include",72,"include"
"251","23.06.22",12:35:27,469672453,"2_28","prime_negative",2,70,1,627,FALSE,0,"include",72,"include"
"252","23.06.22",12:35:27,469672453,"2_29","prime_positive",4,50,1,305,FALSE,0,"include",72,"include"
"253","23.06.22",12:35:27,469672453,"2_30","prime_positive",3,68,1,1645,FALSE,0,"include",72,"include"
"254","23.06.22",12:35:27,469672453,"2_31","prime_negative",4,33,1,587,FALSE,0,"include",72,"include"
"255","23.06.22",12:35:27,469672453,"2_32","prime_positive",1,15,0,723,FALSE,0,"include",72,"include"
"256","23.06.22",12:35:27,469672453,"2_33","prime_positive",2,46,0,538,FALSE,0,"include",72,"include"
"257","23.06.22",12:35:27,469672453,"2_34","prime_positive",2,47,0,329,FALSE,0,"include",72,"include"
"258","23.06.22",12:35:27,469672453,"2_35","prime_positive",1,64,0,443,FALSE,0,"include",72,"include"
"259","23.06.22",12:35:27,469672453,"2_36","prime_positive",4,8,1,402,FALSE,0,"include",72,"include"
"260","23.06.22",12:35:27,469672453,"2_37","prime_positive",3,3,0,1276,FALSE,0,"include",72,"include"
"261","23.06.22",12:35:27,469672453,"2_38","prime_positive",2,61,0,870,FALSE,0,"include",72,"include"
"262","23.06.22",12:35:27,469672453,"2_39","prime_positive",4,42,1,416,FALSE,0,"include",72,"include"
"263","23.06.22",12:35:27,469672453,"2_40","prime_negative",3,17,1,753,FALSE,0,"include",72,"include"
"264","23.06.22",12:35:27,469672453,"2_41","prime_positive",1,56,0,546,FALSE,0,"include",72,"include"
"265","23.06.22",12:35:27,469672453,"2_42","prime_positive",3,12,0,2213,FALSE,0,"include",72,"include"
"266","23.06.22",12:35:27,469672453,"2_43","prime_positive",4,55,1,399,FALSE,0,"include",72,"include"
"267","23.06.22",12:35:27,469672453,"2_44","prime_negative",1,41,1,1017,FALSE,0,"include",72,"include"
"268","23.06.22",12:35:27,469672453,"2_45","prime_negative",1,67,1,405,FALSE,0,"include",72,"include"
"269","23.06.22",12:35:27,469672453,"2_46","prime_positive",2,35,0,322,FALSE,0,"include",72,"include"
"270","23.06.22",12:35:27,469672453,"2_47","prime_negative",3,52,1,1975,FALSE,0,"include",72,"include"
"271","23.06.22",12:35:27,469672453,"2_48","prime_positive",3,60,0,776,FALSE,0,"include",72,"include"
"272","23.06.22",12:35:27,469672453,"2_49","prime_negative",2,27,1,2417,FALSE,0,"include",72,"include"
"273","23.06.22",12:35:27,469672453,"2_50","prime_positive",1,34,0,345,FALSE,0,"include",72,"include"
"274","23.06.22",12:35:27,469672453,"2_51","prime_negative",4,40,1,677,FALSE,0,"include",72,"include"
"275","23.06.22",12:35:27,469672453,"2_52","prime_negative",2,2,1,960,FALSE,0,"include",72,"include"
"276","23.06.22",12:35:27,469672453,"2_53","prime_positive",2,28,0,512,FALSE,0,"include",72,"include"
"277","23.06.22",12:35:27,469672453,"2_54","prime_positive",3,21,0,404,FALSE,0,"include",72,"include"
"278","23.06.22",12:35:27,469672453,"2_55","prime_negative",4,25,1,736,FALSE,0,"include",72,"include"
"279","23.06.22",12:35:27,469672453,"2_56","prime_positive",4,58,1,322,FALSE,0,"include",72,"include"
"280","23.06.22",12:35:27,469672453,"2_57","prime_negative",3,10,0,579,FALSE,0,"include",72,"include"
"281","23.06.22",12:35:27,469672453,"2_58","prime_positive",1,14,0,1290,FALSE,0,"include",72,"include"
"282","23.06.22",12:35:27,469672453,"2_59","prime_positive",1,24,0,347,FALSE,0,"include",72,"include"
"283","23.06.22",12:35:27,469672453,"2_60","prime_negative",1,30,1,776,FALSE,0,"include",72,"include"
"284","23.06.22",12:35:27,469672453,"2_61","prime_positive",2,43,0,465,FALSE,0,"include",72,"include"
"285","23.06.22",12:35:27,469672453,"2_62","prime_positive",4,16,1,458,FALSE,0,"include",72,"include"
"286","23.06.22",12:35:27,469672453,"2_63","prime_negative",3,11,1,4233,FALSE,0,"include",72,"include"
"287","23.06.22",12:35:27,469672453,"2_64","prime_positive",3,58,0,536,FALSE,0,"include",72,"include"
"288","23.06.22",12:35:27,469672453,"2_65","prime_positive",1,31,0,443,FALSE,0,"include",72,"include"
"289","23.06.22",12:35:27,469672453,"2_66","prime_negative",2,54,1,888,FALSE,0,"include",72,"include"
"290","23.06.22",12:35:27,469672453,"2_67","prime_negative",1,3,0,388,FALSE,0,"include",72,"include"
"291","23.06.22",12:35:27,469672453,"2_68","prime_negative",4,68,0,1888,FALSE,0,"include",72,"include"
"292","23.06.22",12:35:27,469672453,"2_69","prime_positive",4,70,1,954,FALSE,0,"include",72,"include"
"293","23.06.22",12:35:27,469672453,"2_70","prime_negative",2,7,0,475,FALSE,0,"include",72,"include"
"294","23.06.22",12:35:27,469672453,"2_71","prime_positive",3,43,0,396,FALSE,0,"include",72,"include"
"295","23.06.22",12:35:27,469672453,"2_72","prime_positive",2,21,0,499,FALSE,0,"include",72,"include"
"296","23.06.22",12:35:27,469672453,"2_73","prime_positive",1,22,0,340,FALSE,0,"include",72,"include"
"297","23.06.22",12:33:59,902223169,"2_2","prime_positive",3,41,0,3329,FALSE,0,"include",72,"include"
"298","23.06.22",12:33:59,902223169,"2_3","prime_negative",1,40,1,1403,FALSE,0,"include",72,"include"
"299","23.06.22",12:33:59,902223169,"2_4","prime_positive",4,47,1,1670,FALSE,0,"include",72,"include"
"300","23.06.22",12:33:59,902223169,"2_5","prime_positive",1,42,1,709,FALSE,0,"include",72,"include"
"301","23.06.22",12:33:59,902223169,"2_6","prime_negative",2,62,0,1165,FALSE,0,"include",72,"include"
"302","23.06.22",12:33:59,902223169,"2_7","prime_positive",2,12,1,1795,FALSE,0,"include",72,"include"
"303","23.06.22",12:33:59,902223169,"2_8","prime_negative",4,30,1,1314,FALSE,0,"include",72,"include"
"304","23.06.22",12:33:59,902223169,"2_9","prime_positive",3,21,0,1225,FALSE,0,"include",72,"include"
"305","23.06.22",12:33:59,902223169,"2_10","prime_positive",4,9,1,1044,FALSE,0,"include",72,"include"
"306","23.06.22",12:33:59,902223169,"2_11","prime_positive",1,22,1,678,FALSE,0,"include",72,"include"
"307","23.06.22",12:33:59,902223169,"2_12","prime_negative",4,53,0,556,FALSE,0,"include",72,"include"
"308","23.06.22",12:33:59,902223169,"2_13","prime_positive",2,70,1,1325,FALSE,0,"include",72,"include"
"309","23.06.22",12:33:59,902223169,"2_14","prime_positive",4,34,0,642,FALSE,0,"include",72,"include"
"310","23.06.22",12:33:59,902223169,"2_15","prime_negative",1,2,1,1262,FALSE,0,"include",72,"include"
"311","23.06.22",12:33:59,902223169,"2_16","prime_negative",3,66,0,1099,FALSE,0,"include",72,"include"
"312","23.06.22",12:33:59,902223169,"2_17","prime_positive",1,44,0,914,FALSE,0,"include",72,"include"
"313","23.06.22",12:33:59,902223169,"2_18","prime_negative",2,45,0,807,FALSE,0,"include",72,"include"
"314","23.06.22",12:33:59,902223169,"2_19","prime_negative",4,33,1,1720,FALSE,0,"include",72,"include"
"315","23.06.22",12:33:59,902223169,"2_20","prime_negative",2,69,0,944,FALSE,0,"include",72,"include"
"316","23.06.22",12:33:59,902223169,"2_21","prime_negative",1,3,0,2329,FALSE,0,"include",72,"include"
"317","23.06.22",12:33:59,902223169,"2_22","prime_negative",3,52,0,909,FALSE,0,"include",72,"include"
"318","23.06.22",12:33:59,902223169,"2_23","prime_negative",1,71,0,1203,FALSE,0,"include",72,"include"
"319","23.06.22",12:33:59,902223169,"2_24","prime_positive",3,65,1,1036,FALSE,0,"include",72,"include"
"320","23.06.22",12:33:59,902223169,"2_25","prime_negative",2,7,1,751,FALSE,0,"include",72,"include"
"321","23.06.22",12:33:59,902223169,"2_26","prime_positive",1,64,1,871,FALSE,0,"include",72,"include"
"322","23.06.22",12:33:59,902223169,"2_27","prime_negative",4,43,0,765,FALSE,0,"include",72,"include"
"323","23.06.22",12:33:59,902223169,"2_28","prime_negative",3,37,0,712,FALSE,0,"include",72,"include"
"324","23.06.22",12:33:59,902223169,"2_29","prime_positive",3,58,0,616,FALSE,0,"include",72,"include"
"325","23.06.22",12:33:59,902223169,"2_30","prime_positive",4,46,1,964,FALSE,0,"include",72,"include"
"326","23.06.22",12:33:59,902223169,"2_31","prime_negative",4,31,1,2458,FALSE,0,"include",72,"include"
"327","23.06.22",12:33:59,902223169,"2_32","prime_negative",2,26,0,891,FALSE,0,"include",72,"include"
"328","23.06.22",12:33:59,902223169,"2_33","prime_positive",2,17,1,506,FALSE,0,"include",72,"include"
"329","23.06.22",12:33:59,902223169,"2_34","prime_positive",1,54,1,2315,FALSE,0,"include",72,"include"
"330","23.06.22",12:33:59,902223169,"2_35","prime_negative",1,57,1,664,FALSE,0,"include",72,"include"
"331","23.06.22",12:33:59,902223169,"2_36","prime_positive",2,25,1,1254,FALSE,0,"include",72,"include"
"332","23.06.22",12:33:59,902223169,"2_37","prime_negative",3,38,1,806,FALSE,0,"include",72,"include"
"333","23.06.22",12:33:59,902223169,"2_38","prime_negative",3,10,0,492,FALSE,0,"include",72,"include"
"334","23.06.22",12:33:59,902223169,"2_39","prime_negative",2,18,0,530,FALSE,0,"include",72,"include"
"335","23.06.22",12:33:59,902223169,"2_40","prime_positive",4,27,1,710,FALSE,0,"include",72,"include"
"336","23.06.22",12:33:59,902223169,"2_41","prime_positive",3,63,0,472,FALSE,0,"include",72,"include"
"337","23.06.22",12:33:59,902223169,"2_42","prime_negative",1,36,1,962,FALSE,0,"include",72,"include"
"338","23.06.22",12:33:59,902223169,"2_43","prime_positive",3,72,0,920,FALSE,0,"include",72,"include"
"339","23.06.22",12:33:59,902223169,"2_44","prime_negative",4,49,0,899,FALSE,0,"include",72,"include"
"340","23.06.22",12:33:59,902223169,"2_45","prime_positive",4,55,1,1877,FALSE,0,"include",72,"include"
"341","23.06.22",12:33:59,902223169,"2_46","prime_positive",2,35,0,1176,FALSE,0,"include",72,"include"
"342","23.06.22",12:33:59,902223169,"2_47","prime_positive",1,60,1,1237,FALSE,0,"include",72,"include"
"343","23.06.22",12:33:59,902223169,"2_48","prime_negative",3,59,0,452,FALSE,0,"include",72,"include"
"344","23.06.22",12:33:59,902223169,"2_49","prime_negative",2,14,0,1149,FALSE,0,"include",72,"include"
"345","23.06.22",12:33:59,902223169,"2_50","prime_negative",1,15,1,1670,FALSE,0,"include",72,"include"
"346","23.06.22",12:33:59,902223169,"2_51","prime_negative",4,11,1,1037,FALSE,0,"include",72,"include"
"347","23.06.22",12:33:59,902223169,"2_52","prime_positive",3,29,1,491,FALSE,0,"include",72,"include"
"348","23.06.22",12:33:59,902223169,"2_53","prime_positive",2,19,0,313,FALSE,0,"include",72,"include"
"349","23.06.22",12:33:59,902223169,"2_54","prime_negative",2,8,0,537,FALSE,0,"include",72,"include"
"350","23.06.22",12:33:59,902223169,"2_55","prime_positive",1,4,0,307,FALSE,0,"include",72,"include"
"351","23.06.22",12:33:59,902223169,"2_56","prime_positive",4,39,1,405,FALSE,0,"include",72,"include"
"352","23.06.22",12:33:59,902223169,"2_57","prime_positive",2,56,1,41169,FALSE,0,"include",72,"include"
"353","23.06.22",12:33:59,902223169,"2_58","prime_negative",1,51,1,868,FALSE,0,"include",72,"include"
"354","23.06.22",12:33:59,902223169,"2_59","prime_positive",1,16,0,3274,FALSE,0,"include",72,"include"
"355","23.06.22",12:33:59,902223169,"2_60","prime_positive",4,28,0,602,FALSE,0,"include",72,"include"
"356","23.06.22",12:33:59,902223169,"2_61","prime_negative",3,23,1,819,FALSE,0,"include",72,"include"
"357","23.06.22",12:33:59,902223169,"2_62","prime_negative",4,6,1,760,FALSE,0,"include",72,"include"
"358","23.06.22",12:33:59,902223169,"2_63","prime_positive",3,20,1,1663,FALSE,0,"include",72,"include"
"359","23.06.22",12:33:59,902223169,"2_64","prime_negative",2,27,1,814,FALSE,0,"include",72,"include"
"360","23.06.22",12:33:59,902223169,"2_65","prime_positive",3,9,1,598,FALSE,0,"include",72,"include"
"361","23.06.22",12:33:59,902223169,"2_66","prime_positive",2,7,0,670,FALSE,0,"include",72,"include"
"362","23.06.22",12:33:59,902223169,"2_67","prime_negative",4,28,0,1074,FALSE,0,"include",72,"include"
"363","23.06.22",12:33:59,902223169,"2_68","prime_negative",3,52,0,1548,FALSE,0,"include",72,"include"
"364","23.06.22",12:33:59,902223169,"2_69","prime_negative",1,46,1,477,FALSE,0,"include",72,"include"
"365","23.06.22",12:33:59,902223169,"2_70","prime_negative",2,30,1,624,FALSE,0,"include",72,"include"
"366","23.06.22",12:33:59,902223169,"2_71","prime_positive",4,10,0,1306,FALSE,0,"include",72,"include"
"367","23.06.22",12:33:59,902223169,"2_72","prime_positive",1,49,1,974,FALSE,0,"include",72,"include"
"368","23.06.22",12:33:59,902223169,"2_73","prime_positive",3,2,1,535,FALSE,0,"include",72,"include"
"369","23.06.22",13:37:13,637089700,"2_2","prime_negative",3,11,1,471,FALSE,0,"include",72,"include"
"370","23.06.22",13:37:13,637089700,"2_3","prime_negative",2,71,1,424,FALSE,0,"include",72,"include"
"371","23.06.22",13:37:13,637089700,"2_4","prime_negative",4,6,1,423,FALSE,0,"include",72,"include"
"372","23.06.22",13:37:13,637089700,"2_5","prime_negative",4,33,1,438,FALSE,0,"include",72,"include"
"373","23.06.22",13:37:13,637089700,"2_6","prime_negative",1,60,1,471,FALSE,0,"include",72,"include"
"374","23.06.22",13:37:13,637089700,"2_7","prime_positive",2,40,1,392,FALSE,0,"include",72,"include"
"375","23.06.22",13:37:13,637089700,"2_8","prime_negative",2,15,1,543,FALSE,0,"include",72,"include"
"376","23.06.22",13:37:13,637089700,"2_9","prime_negative",3,25,1,481,FALSE,0,"include",72,"include"
"377","23.06.22",13:37:13,637089700,"2_10","prime_positive",3,38,1,438,FALSE,0,"include",72,"include"
"378","23.06.22",13:37:13,637089700,"2_11","prime_positive",4,18,1,500,FALSE,0,"include",72,"include"
"379","23.06.22",13:37:13,637089700,"2_12","prime_negative",1,3,1,511,FALSE,0,"include",72,"include"
"380","23.06.22",13:37:13,637089700,"2_13","prime_negative",3,55,1,407,FALSE,0,"include",72,"include"
"381","23.06.22",13:37:13,637089700,"2_14","prime_positive",2,28,1,366,FALSE,0,"include",72,"include"
"382","23.06.22",13:37:13,637089700,"2_15","prime_negative",2,62,1,388,FALSE,0,"include",72,"include"
"383","23.06.22",13:37:13,637089700,"2_16","prime_positive",1,72,1,386,FALSE,0,"include",72,"include"
"384","23.06.22",13:37:13,637089700,"2_17","prime_positive",4,61,1,452,FALSE,0,"include",72,"include"
"385","23.06.22",13:37:13,637089700,"2_18","prime_positive",3,31,1,424,FALSE,0,"include",72,"include"
"386","23.06.22",13:37:13,637089700,"2_19","prime_positive",4,4,1,426,FALSE,0,"include",72,"include"
"387","23.06.22",13:37:13,637089700,"2_20","prime_positive",2,66,1,361,FALSE,0,"include",72,"include"
"388","23.06.22",13:37:13,637089700,"2_21","prime_negative",4,51,1,388,FALSE,0,"include",72,"include"
"389","23.06.22",13:37:13,637089700,"2_22","prime_positive",1,49,1,333,FALSE,0,"include",72,"include"
"390","23.06.22",13:37:13,637089700,"2_23","prime_positive",3,69,1,465,FALSE,0,"include",72,"include"
"391","23.06.22",13:37:13,637089700,"2_24","prime_positive",2,23,1,719,FALSE,0,"include",72,"include"
"392","23.06.22",13:37:13,637089700,"2_25","prime_negative",3,68,1,518,FALSE,0,"include",72,"include"
"393","23.06.22",13:37:13,637089700,"2_26","prime_negative",2,1,1,395,FALSE,0,"include",72,"include"
"394","23.06.22",13:37:13,637089700,"2_27","prime_negative",1,67,1,485,FALSE,0,"include",72,"include"
"395","23.06.22",13:37:13,637089700,"2_28","prime_positive",3,13,1,508,FALSE,0,"include",72,"include"
"396","23.06.22",13:37:13,637089700,"2_29","prime_negative",4,44,1,395,FALSE,0,"include",72,"include"
"397","23.06.22",13:37:13,637089700,"2_30","prime_positive",4,46,1,423,FALSE,0,"include",72,"include"
"398","23.06.22",13:37:13,637089700,"2_31","prime_positive",1,14,1,322,FALSE,0,"include",72,"include"
"399","23.06.22",13:37:13,637089700,"2_32","prime_positive",2,9,1,672,FALSE,0,"include",72,"include"
"400","23.06.22",13:37:13,637089700,"2_33","prime_negative",4,57,1,339,FALSE,0,"include",72,"include"
"401","23.06.22",13:37:13,637089700,"2_34","prime_positive",3,24,1,275,FALSE,0,"include",72,"include"
"402","23.06.22",13:37:13,637089700,"2_35","prime_positive",4,21,1,286,FALSE,0,"include",72,"include"
"403","23.06.22",13:37:13,637089700,"2_36","prime_positive",1,29,1,262,FALSE,0,"include",72,"include"
"404","23.06.22",13:37:13,637089700,"2_37","prime_negative",2,2,1,276,FALSE,0,"include",72,"include"
"405","23.06.22",13:37:13,637089700,"2_38","prime_positive",4,10,1,214,FALSE,0,"include",72,"include"
"406","23.06.22",13:37:13,637089700,"2_39","prime_negative",1,16,1,240,FALSE,0,"include",72,"include"
"407","23.06.22",13:37:13,637089700,"2_40","prime_positive",2,35,1,276,FALSE,0,"include",72,"include"
"408","23.06.22",13:37:13,637089700,"2_41","prime_negative",3,27,1,228,FALSE,0,"include",72,"include"
"409","23.06.22",13:37:13,637089700,"2_42","prime_positive",3,50,1,215,FALSE,0,"include",72,"include"
"410","23.06.22",13:37:13,637089700,"2_43","prime_negative",1,58,1,195,FALSE,0,"include",72,"include"
"411","23.06.22",13:37:13,637089700,"2_44","prime_negative",3,59,1,194,FALSE,0,"include",72,"include"
"412","23.06.22",13:37:13,637089700,"2_45","prime_negative",4,32,1,258,FALSE,0,"include",72,"include"
"413","23.06.22",13:37:13,637089700,"2_46","prime_negative",2,53,1,289,FALSE,0,"include",72,"include"
"414","23.06.22",13:37:13,637089700,"2_47","prime_negative",1,30,1,245,FALSE,0,"include",72,"include"
"415","23.06.22",13:37:13,637089700,"2_48","prime_negative",4,19,1,253,FALSE,0,"include",72,"include"
"416","23.06.22",13:37:13,637089700,"2_49","prime_positive",1,70,1,268,FALSE,0,"include",72,"include"
"417","23.06.22",13:37:13,637089700,"2_50","prime_positive",2,20,1,253,FALSE,0,"include",72,"include"
"418","23.06.22",13:37:13,637089700,"2_51","prime_negative",3,47,1,274,FALSE,0,"include",72,"include"
"419","23.06.22",13:37:13,637089700,"2_52","prime_negative",2,43,1,291,FALSE,0,"include",72,"include"
"420","23.06.22",13:37:13,637089700,"2_53","prime_negative",1,5,1,484,FALSE,0,"include",72,"include"
"421","23.06.22",13:37:13,637089700,"2_54","prime_negative",3,36,1,432,FALSE,0,"include",72,"include"
"422","23.06.22",13:37:13,637089700,"2_55","prime_positive",1,22,1,578,FALSE,0,"include",72,"include"
"423","23.06.22",13:37:13,637089700,"2_56","prime_positive",4,48,1,420,FALSE,0,"include",72,"include"
"424","23.06.22",13:37:13,637089700,"2_57","prime_negative",4,64,1,317,FALSE,0,"include",72,"include"
"425","23.06.22",13:37:13,637089700,"2_58","prime_positive",3,54,1,306,FALSE,0,"include",72,"include"
"426","23.06.22",13:37:13,637089700,"2_59","prime_negative",2,12,1,397,FALSE,0,"include",72,"include"
"427","23.06.22",13:37:13,637089700,"2_60","prime_positive",3,63,1,311,FALSE,0,"include",72,"include"
"428","23.06.22",13:37:13,637089700,"2_61","prime_positive",1,52,1,252,FALSE,0,"include",72,"include"
"429","23.06.22",13:37:13,637089700,"2_62","prime_positive",2,45,1,255,FALSE,0,"include",72,"include"
"430","23.06.22",13:37:13,637089700,"2_63","prime_positive",4,41,1,269,FALSE,0,"include",72,"include"
"431","23.06.22",13:37:13,637089700,"2_64","prime_positive",4,36,1,290,FALSE,0,"include",72,"include"
"432","23.06.22",13:37:13,637089700,"2_65","prime_positive",2,71,1,878,FALSE,0,"include",72,"include"
"433","23.06.22",13:37:13,637089700,"2_66","prime_negative",3,32,1,374,FALSE,0,"include",72,"include"
"434","23.06.22",13:37:13,637089700,"2_67","prime_negative",1,37,1,269,FALSE,0,"include",72,"include"
"435","23.06.22",13:37:13,637089700,"2_68","prime_positive",3,45,1,269,FALSE,0,"include",72,"include"
"436","23.06.22",13:37:13,637089700,"2_69","prime_negative",2,7,1,281,FALSE,0,"include",72,"include"
"437","23.06.22",13:37:13,637089700,"2_70","prime_negative",4,13,1,332,FALSE,0,"include",72,"include"
"438","23.06.22",13:37:13,637089700,"2_71","prime_negative",4,6,1,215,FALSE,0,"include",72,"include"
"439","23.06.22",13:37:13,637089700,"2_72","prime_positive",1,41,1,219,FALSE,0,"include",72,"include"
"440","23.06.22",13:37:13,637089700,"2_73","prime_positive",1,63,1,201,FALSE,0,"include",72,"include"
"441","23.06.22",12:37:38,4345805,"2_2","prime_positive",3,67,1,967,FALSE,0.0416666666666667,"include",72,"include"
"442","23.06.22",12:37:38,4345805,"2_3","prime_positive",2,48,0,483,FALSE,0.0416666666666667,"include",72,"include"
"443","23.06.22",12:37:38,4345805,"2_4","prime_negative",2,64,1,495,FALSE,0.0416666666666667,"include",72,"include"
"444","23.06.22",12:37:38,4345805,"2_5","prime_positive",1,42,0,1038,FALSE,0.0416666666666667,"include",72,"include"
"445","23.06.22",12:37:38,4345805,"2_6","prime_positive",1,43,0,668,FALSE,0.0416666666666667,"include",72,"include"
"446","23.06.22",12:37:38,4345805,"2_7","prime_negative",4,20,1,562,FALSE,0.0416666666666667,"include",72,"include"
"447","23.06.22",12:37:38,4345805,"2_8","prime_positive",2,56,0,567,FALSE,0.0416666666666667,"include",72,"include"
"448","23.06.22",12:37:38,4345805,"2_9","prime_negative",1,47,0,8919,FALSE,0.0416666666666667,"include",72,"include"
"449","23.06.22",12:37:38,4345805,"2_10","prime_negative",3,32,1,2473,FALSE,0.0416666666666667,"include",72,"include"
"450","23.06.22",12:37:38,4345805,"2_11","prime_positive",3,15,0,347,FALSE,0.0416666666666667,"include",72,"include"
"451","23.06.22",12:37:38,4345805,"2_12","prime_positive",4,2,0,268,FALSE,0.0416666666666667,"include",72,"include"
"452","23.06.22",12:37:38,4345805,"2_13","prime_positive",1,12,0,158,FALSE,0.0416666666666667,"include",72,"include"
"453","23.06.22",12:37:38,4345805,"2_14","prime_positive",2,30,1,117,FALSE,0.0416666666666667,"include",72,"include"
"454","23.06.22",12:37:38,4345805,"2_15","prime_negative",2,69,0,3,TRUE,0.0416666666666667,"include",72,"include"
"455","23.06.22",12:37:38,4345805,"2_16","prime_negative",4,50,0,276,FALSE,0.0416666666666667,"include",72,"include"
"456","23.06.22",12:37:38,4345805,"2_17","prime_positive",3,72,1,253,FALSE,0.0416666666666667,"include",72,"include"
"457","23.06.22",12:37:38,4345805,"2_18","prime_negative",1,8,0,209,FALSE,0.0416666666666667,"include",72,"include"
"458","23.06.22",12:37:38,4345805,"2_19","prime_positive",4,57,0,126,FALSE,0.0416666666666667,"include",72,"include"
"459","23.06.22",12:37:38,4345805,"2_20","prime_negative",4,1,0,222,FALSE,0.0416666666666667,"include",72,"include"
"460","23.06.22",12:37:38,4345805,"2_21","prime_positive",1,70,0,248,FALSE,0.0416666666666667,"include",72,"include"
"461","23.06.22",12:37:38,4345805,"2_22","prime_negative",1,3,1,266,FALSE,0.0416666666666667,"include",72,"include"
"462","23.06.22",12:37:38,4345805,"2_23","prime_positive",4,65,0,745,FALSE,0.0416666666666667,"include",72,"include"
"463","23.06.22",12:37:38,4345805,"2_24","prime_negative",3,45,1,206,FALSE,0.0416666666666667,"include",72,"include"
"464","23.06.22",12:37:38,4345805,"2_25","prime_positive",2,60,0,455,FALSE,0.0416666666666667,"include",72,"include"
"465","23.06.22",12:37:38,4345805,"2_26","prime_positive",3,68,0,483,FALSE,0.0416666666666667,"include",72,"include"
"466","23.06.22",12:37:38,4345805,"2_27","prime_positive",2,21,1,489,FALSE,0.0416666666666667,"include",72,"include"
"467","23.06.22",12:37:38,4345805,"2_28","prime_positive",4,25,0,436,FALSE,0.0416666666666667,"include",72,"include"
"468","23.06.22",12:37:38,4345805,"2_29","prime_negative",2,51,0,421,FALSE,0.0416666666666667,"include",72,"include"
"469","23.06.22",12:37:38,4345805,"2_30","prime_negative",4,6,1,391,FALSE,0.0416666666666667,"include",72,"include"
"470","23.06.22",12:37:38,4345805,"2_31","prime_negative",1,55,0,577,FALSE,0.0416666666666667,"include",72,"include"
"471","23.06.22",12:37:38,4345805,"2_32","prime_negative",2,39,1,604,FALSE,0.0416666666666667,"include",72,"include"
"472","23.06.22",12:37:38,4345805,"2_33","prime_positive",1,28,1,396,FALSE,0.0416666666666667,"include",72,"include"
"473","23.06.22",12:37:38,4345805,"2_34","prime_negative",3,24,1,583,FALSE,0.0416666666666667,"include",72,"include"
"474","23.06.22",12:37:38,4345805,"2_35","prime_negative",2,62,0,367,FALSE,0.0416666666666667,"include",72,"include"
"475","23.06.22",12:37:38,4345805,"2_36","prime_positive",3,41,1,406,FALSE,0.0416666666666667,"include",72,"include"
"476","23.06.22",12:37:38,4345805,"2_37","prime_positive",3,54,0,290,FALSE,0.0416666666666667,"include",72,"include"
"477","23.06.22",12:37:38,4345805,"2_38","prime_positive",2,17,1,239,FALSE,0.0416666666666667,"include",72,"include"
"478","23.06.22",12:37:38,4345805,"2_39","prime_positive",4,63,0,87,TRUE,0.0416666666666667,"include",72,"include"
"479","23.06.22",12:37:38,4345805,"2_40","prime_positive",1,38,1,422,FALSE,0.0416666666666667,"include",72,"include"
"480","23.06.22",12:37:38,4345805,"2_41","prime_negative",3,59,1,923,FALSE,0.0416666666666667,"include",72,"include"
"481","23.06.22",12:37:38,4345805,"2_42","prime_negative",1,37,1,543,FALSE,0.0416666666666667,"include",72,"include"
"482","23.06.22",12:37:38,4345805,"2_43","prime_positive",4,71,0,353,FALSE,0.0416666666666667,"include",72,"include"
"483","23.06.22",12:37:38,4345805,"2_44","prime_positive",3,26,0,452,FALSE,0.0416666666666667,"include",72,"include"
"484","23.06.22",12:37:38,4345805,"2_45","prime_positive",2,16,1,362,FALSE,0.0416666666666667,"include",72,"include"
"485","23.06.22",12:37:38,4345805,"2_46","prime_positive",1,52,0,224,FALSE,0.0416666666666667,"include",72,"include"
"486","23.06.22",12:37:38,4345805,"2_47","prime_negative",4,34,1,140,FALSE,0.0416666666666667,"include",72,"include"
"487","23.06.22",12:37:38,4345805,"2_48","prime_negative",3,36,0,292,FALSE,0.0416666666666667,"include",72,"include"
"488","23.06.22",12:37:38,4345805,"2_49","prime_positive",1,44,0,56,TRUE,0.0416666666666667,"include",72,"include"
"489","23.06.22",12:37:38,4345805,"2_50","prime_negative",2,46,0,881,FALSE,0.0416666666666667,"include",72,"include"
"490","23.06.22",12:37:38,4345805,"2_51","prime_positive",3,49,0,361,FALSE,0.0416666666666667,"include",72,"include"
"491","23.06.22",12:37:38,4345805,"2_52","prime_negative",4,10,0,224,FALSE,0.0416666666666667,"include",72,"include"
"492","23.06.22",12:37:38,4345805,"2_53","prime_negative",1,53,1,321,FALSE,0.0416666666666667,"include",72,"include"
"493","23.06.22",12:37:38,4345805,"2_54","prime_negative",4,18,1,190,FALSE,0.0416666666666667,"include",72,"include"
"494","23.06.22",12:37:38,4345805,"2_55","prime_negative",1,66,1,266,FALSE,0.0416666666666667,"include",72,"include"
"495","23.06.22",12:37:38,4345805,"2_56","prime_negative",3,19,0,195,FALSE,0.0416666666666667,"include",72,"include"
"496","23.06.22",12:37:38,4345805,"2_57","prime_positive",4,40,0,286,FALSE,0.0416666666666667,"include",72,"include"
"497","23.06.22",12:37:38,4345805,"2_58","prime_negative",2,22,1,246,FALSE,0.0416666666666667,"include",72,"include"
"498","23.06.22",12:37:38,4345805,"2_59","prime_negative",2,23,1,441,FALSE,0.0416666666666667,"include",72,"include"
"499","23.06.22",12:37:38,4345805,"2_60","prime_positive",2,35,0,349,FALSE,0.0416666666666667,"include",72,"include"
"500","23.06.22",12:37:38,4345805,"2_61","prime_positive",4,61,1,325,FALSE,0.0416666666666667,"include",72,"include"
"501","23.06.22",12:37:38,4345805,"2_62","prime_negative",4,9,1,397,FALSE,0.0416666666666667,"include",72,"include"
"502","23.06.22",12:37:38,4345805,"2_63","prime_negative",1,7,1,382,FALSE,0.0416666666666667,"include",72,"include"
"503","23.06.22",12:37:38,4345805,"2_64","prime_positive",2,36,0,353,FALSE,0.0416666666666667,"include",72,"include"
"504","23.06.22",12:37:38,4345805,"2_65","prime_negative",3,60,0,299,FALSE,0.0416666666666667,"include",72,"include"
"505","23.06.22",12:37:38,4345805,"2_66","prime_negative",3,28,1,319,FALSE,0.0416666666666667,"include",72,"include"
"506","23.06.22",12:37:38,4345805,"2_67","prime_negative",1,21,0,315,FALSE,0.0416666666666667,"include",72,"include"
"507","23.06.22",12:37:38,4345805,"2_68","prime_negative",4,42,1,247,FALSE,0.0416666666666667,"include",72,"include"
"508","23.06.22",12:37:38,4345805,"2_69","prime_negative",2,35,1,167,FALSE,0.0416666666666667,"include",72,"include"
"509","23.06.22",12:37:38,4345805,"2_70","prime_positive",1,30,1,222,FALSE,0.0416666666666667,"include",72,"include"
"510","23.06.22",12:37:38,4345805,"2_71","prime_positive",3,39,0,493,FALSE,0.0416666666666667,"include",72,"include"
"511","23.06.22",12:37:38,4345805,"2_72","prime_negative",4,46,0,255,FALSE,0.0416666666666667,"include",72,"include"
"512","23.06.22",12:37:38,4345805,"2_73","prime_positive",3,12,0,197,FALSE,0.0416666666666667,"include",72,"include"
"513","23.06.22",13:37:57,786441188,"2_2","prime_negative",1,24,0,834,FALSE,0,"include",72,"include"
"514","23.06.22",13:37:57,786441188,"2_3","prime_positive",3,37,1,433,FALSE,0,"include",72,"include"
"515","23.06.22",13:37:57,786441188,"2_4","prime_negative",3,29,0,277,FALSE,0,"include",72,"include"
"516","23.06.22",13:37:57,786441188,"2_5","prime_negative",4,23,0,523,FALSE,0,"include",72,"include"
"517","23.06.22",13:37:57,786441188,"2_6","prime_positive",2,27,1,375,FALSE,0,"include",72,"include"
"518","23.06.22",13:37:57,786441188,"2_7","prime_positive",4,52,0,330,FALSE,0,"include",72,"include"
"519","23.06.22",13:37:57,786441188,"2_8","prime_negative",2,38,0,443,FALSE,0,"include",72,"include"
"520","23.06.22",13:37:57,786441188,"2_9","prime_negative",3,72,0,421,FALSE,0,"include",72,"include"
"521","23.06.22",13:37:57,786441188,"2_10","prime_negative",1,39,0,420,FALSE,0,"include",72,"include"
"522","23.06.22",13:37:57,786441188,"2_11","prime_positive",4,16,0,918,FALSE,0,"include",72,"include"
"523","23.06.22",13:37:57,786441188,"2_12","prime_negative",4,2,0,546,FALSE,0,"include",72,"include"
"524","23.06.22",13:37:57,786441188,"2_13","prime_negative",1,33,0,462,FALSE,0,"include",72,"include"
"525","23.06.22",13:37:57,786441188,"2_14","prime_positive",1,28,1,377,FALSE,0,"include",72,"include"
"526","23.06.22",13:37:57,786441188,"2_15","prime_positive",2,41,1,457,FALSE,0,"include",72,"include"
"527","23.06.22",13:37:57,786441188,"2_16","prime_negative",3,44,0,473,FALSE,0,"include",72,"include"
"528","23.06.22",13:37:57,786441188,"2_17","prime_positive",3,58,1,939,FALSE,0,"include",72,"include"
"529","23.06.22",13:37:57,786441188,"2_18","prime_positive",2,45,1,467,FALSE,0,"include",72,"include"
"530","23.06.22",13:37:57,786441188,"2_19","prime_positive",1,36,1,367,FALSE,0,"include",72,"include"
"531","23.06.22",13:37:57,786441188,"2_20","prime_negative",2,5,0,487,FALSE,0,"include",72,"include"
"532","23.06.22",13:37:57,786441188,"2_21","prime_negative",4,54,0,663,FALSE,0,"include",72,"include"
"533","23.06.22",13:37:57,786441188,"2_22","prime_positive",4,1,0,676,FALSE,0,"include",72,"include"
"534","23.06.22",13:37:57,786441188,"2_23","prime_positive",3,13,1,549,FALSE,0,"include",72,"include"
"535","23.06.22",13:37:57,786441188,"2_24","prime_positive",4,70,0,431,FALSE,0,"include",72,"include"
"536","23.06.22",13:37:57,786441188,"2_25","prime_positive",1,34,1,330,FALSE,0,"include",72,"include"
"537","23.06.22",13:37:57,786441188,"2_26","prime_negative",2,57,0,865,FALSE,0,"include",72,"include"
"538","23.06.22",13:37:57,786441188,"2_27","prime_positive",2,6,1,290,FALSE,0,"include",72,"include"
"539","23.06.22",13:37:57,786441188,"2_28","prime_positive",3,21,1,449,FALSE,0,"include",72,"include"
"540","23.06.22",13:37:57,786441188,"2_29","prime_positive",3,10,1,435,FALSE,0,"include",72,"include"
"541","23.06.22",13:37:57,786441188,"2_30","prime_positive",1,60,1,362,FALSE,0,"include",72,"include"
"542","23.06.22",13:37:57,786441188,"2_31","prime_negative",4,11,0,567,FALSE,0,"include",72,"include"
"543","23.06.22",13:37:57,786441188,"2_32","prime_negative",1,67,0,299,FALSE,0,"include",72,"include"
"544","23.06.22",13:37:57,786441188,"2_33","prime_negative",3,3,0,300,FALSE,0,"include",72,"include"
"545","23.06.22",13:37:57,786441188,"2_34","prime_positive",4,48,0,362,FALSE,0,"include",72,"include"
"546","23.06.22",13:37:57,786441188,"2_35","prime_negative",1,68,0,635,FALSE,0,"include",72,"include"
"547","23.06.22",13:37:57,786441188,"2_36","prime_negative",2,69,0,528,FALSE,0,"include",72,"include"
"548","23.06.22",13:37:57,786441188,"2_37","prime_positive",2,63,1,441,FALSE,0,"include",72,"include"
"549","23.06.22",13:37:57,786441188,"2_38","prime_positive",1,47,1,554,FALSE,0,"include",72,"include"
"550","23.06.22",13:37:57,786441188,"2_39","prime_negative",3,40,0,568,FALSE,0,"include",72,"include"
"551","23.06.22",13:37:57,786441188,"2_40","prime_positive",2,50,1,553,FALSE,0,"include",72,"include"
"552","23.06.22",13:37:57,786441188,"2_41","prime_negative",4,59,0,722,FALSE,0,"include",72,"include"
"553","23.06.22",13:37:57,786441188,"2_42","prime_positive",3,15,1,525,FALSE,0,"include",72,"include"
"554","23.06.22",13:37:57,786441188,"2_43","prime_positive",4,43,0,669,FALSE,0,"include",72,"include"
"555","23.06.22",13:37:57,786441188,"2_44","prime_positive",2,32,1,319,FALSE,0,"include",72,"include"
"556","23.06.22",13:37:57,786441188,"2_45","prime_negative",4,30,0,454,FALSE,0,"include",72,"include"
"557","23.06.22",13:37:57,786441188,"2_46","prime_positive",3,53,1,415,FALSE,0,"include",72,"include"
"558","23.06.22",13:37:57,786441188,"2_47","prime_negative",3,4,0,515,FALSE,0,"include",72,"include"
"559","23.06.22",13:37:57,786441188,"2_48","prime_positive",4,25,0,404,FALSE,0,"include",72,"include"
"560","23.06.22",13:37:57,786441188,"2_49","prime_negative",2,71,0,461,FALSE,0,"include",72,"include"
"561","23.06.22",13:37:57,786441188,"2_50","prime_positive",1,20,1,401,FALSE,0,"include",72,"include"
"562","23.06.22",13:37:57,786441188,"2_51","prime_negative",1,12,0,422,FALSE,0,"include",72,"include"
"563","23.06.22",13:37:57,786441188,"2_52","prime_positive",2,14,1,466,FALSE,0,"include",72,"include"
"564","23.06.22",13:37:57,786441188,"2_53","prime_negative",2,56,0,362,FALSE,0,"include",72,"include"
"565","23.06.22",13:37:57,786441188,"2_54","prime_negative",4,66,0,1009,FALSE,0,"include",72,"include"
"566","23.06.22",13:37:57,786441188,"2_55","prime_positive",4,26,0,1065,FALSE,0,"include",72,"include"
"567","23.06.22",13:37:57,786441188,"2_56","prime_positive",1,8,1,320,FALSE,0,"include",72,"include"
"568","23.06.22",13:37:57,786441188,"2_57","prime_positive",3,31,1,435,FALSE,0,"include",72,"include"
"569","23.06.22",13:37:57,786441188,"2_58","prime_negative",3,46,0,440,FALSE,0,"include",72,"include"
"570","23.06.22",13:37:57,786441188,"2_59","prime_positive",4,22,0,4314,FALSE,0,"include",72,"include"
"571","23.06.22",13:37:57,786441188,"2_60","prime_negative",1,51,0,3146,FALSE,0,"include",72,"include"
"572","23.06.22",13:37:57,786441188,"2_61","prime_negative",4,55,1,512,FALSE,0,"include",72,"include"
"573","23.06.22",13:37:57,786441188,"2_62","prime_negative",1,49,0,2225,FALSE,0,"include",72,"include"
"574","23.06.22",13:37:57,786441188,"2_63","prime_positive",2,65,0,1646,FALSE,0,"include",72,"include"
"575","23.06.22",13:37:57,786441188,"2_64","prime_positive",1,70,1,1093,FALSE,0,"include",72,"include"
"576","23.06.22",13:37:57,786441188,"2_65","prime_positive",3,53,0,1748,FALSE,0,"include",72,"include"
"577","23.06.22",13:37:57,786441188,"2_66","prime_negative",2,69,0,718,FALSE,0,"include",72,"include"
"578","23.06.22",13:37:57,786441188,"2_67","prime_negative",3,38,1,789,FALSE,0,"include",72,"include"
"579","23.06.22",13:37:57,786441188,"2_68","prime_positive",3,65,0,878,FALSE,0,"include",72,"include"
"580","23.06.22",13:37:57,786441188,"2_69","prime_negative",3,43,1,1222,FALSE,0,"include",72,"include"
"581","23.06.22",13:37:57,786441188,"2_70","prime_negative",2,48,0,834,FALSE,0,"include",72,"include"
"582","23.06.22",13:37:57,786441188,"2_71","prime_negative",4,33,1,710,FALSE,0,"include",72,"include"
"583","23.06.22",13:37:57,786441188,"2_72","prime_negative",1,35,1,839,FALSE,0,"include",72,"include"
"584","23.06.22",13:37:57,786441188,"2_73","prime_negative",1,59,0,678,FALSE,0,"include",72,"include"
"585","23.06.22",12:42:40,510787584,"2_2","prime_positive",2,6,0,951,FALSE,0.0138888888888889,"include",72,"include"
"586","23.06.22",12:42:40,510787584,"2_3","prime_negative",1,8,0,497,FALSE,0.0138888888888889,"include",72,"include"
"587","23.06.22",12:42:40,510787584,"2_4","prime_positive",3,60,0,433,FALSE,0.0138888888888889,"include",72,"include"
"588","23.06.22",12:42:40,510787584,"2_5","prime_positive",1,46,0,319,FALSE,0.0138888888888889,"include",72,"include"
"589","23.06.22",12:42:40,510787584,"2_6","prime_positive",2,9,0,426,FALSE,0.0138888888888889,"include",72,"include"
"590","23.06.22",12:42:40,510787584,"2_7","prime_negative",2,64,0,300,FALSE,0.0138888888888889,"include",72,"include"
"591","23.06.22",12:42:40,510787584,"2_8","prime_negative",4,16,0,142,FALSE,0.0138888888888889,"include",72,"include"
"592","23.06.22",12:42:40,510787584,"2_9","prime_negative",4,58,0,204,FALSE,0.0138888888888889,"include",72,"include"
"593","23.06.22",12:42:40,510787584,"2_10","prime_negative",3,31,0,159,FALSE,0.0138888888888889,"include",72,"include"
"594","23.06.22",12:42:40,510787584,"2_11","prime_positive",3,36,0,239,FALSE,0.0138888888888889,"include",72,"include"
"595","23.06.22",12:42:40,510787584,"2_12","prime_positive",1,44,1,145,FALSE,0.0138888888888889,"include",72,"include"
"596","23.06.22",12:42:40,510787584,"2_13","prime_negative",2,54,1,255,FALSE,0.0138888888888889,"include",72,"include"
"597","23.06.22",12:42:40,510787584,"2_14","prime_positive",4,59,1,389,FALSE,0.0138888888888889,"include",72,"include"
"598","23.06.22",12:42:40,510787584,"2_15","prime_positive",3,4,1,199,FALSE,0.0138888888888889,"include",72,"include"
"599","23.06.22",12:42:40,510787584,"2_16","prime_positive",2,10,1,191,FALSE,0.0138888888888889,"include",72,"include"
"600","23.06.22",12:42:40,510787584,"2_17","prime_positive",4,39,0,598,FALSE,0.0138888888888889,"include",72,"include"
"601","23.06.22",12:42:40,510787584,"2_18","prime_positive",1,38,0,393,FALSE,0.0138888888888889,"include",72,"include"
"602","23.06.22",12:42:40,510787584,"2_19","prime_positive",4,27,0,341,FALSE,0.0138888888888889,"include",72,"include"
"603","23.06.22",12:42:40,510787584,"2_20","prime_negative",1,71,0,319,FALSE,0.0138888888888889,"include",72,"include"
"604","23.06.22",12:42:40,510787584,"2_21","prime_negative",3,72,0,314,FALSE,0.0138888888888889,"include",72,"include"
"605","23.06.22",12:42:40,510787584,"2_22","prime_positive",2,35,0,413,FALSE,0.0138888888888889,"include",72,"include"
"606","23.06.22",12:42:40,510787584,"2_23","prime_negative",2,41,0,297,FALSE,0.0138888888888889,"include",72,"include"
"607","23.06.22",12:42:40,510787584,"2_24","prime_positive",1,56,0,373,FALSE,0.0138888888888889,"include",72,"include"
"608","23.06.22",12:42:40,510787584,"2_25","prime_positive",3,50,1,453,FALSE,0.0138888888888889,"include",72,"include"
"609","23.06.22",12:42:40,510787584,"2_26","prime_positive",3,53,1,434,FALSE,0.0138888888888889,"include",72,"include"
"610","23.06.22",12:42:40,510787584,"2_27","prime_negative",4,17,1,341,FALSE,0.0138888888888889,"include",72,"include"
"611","23.06.22",12:42:40,510787584,"2_28","prime_negative",1,13,1,234,FALSE,0.0138888888888889,"include",72,"include"
"612","23.06.22",12:42:40,510787584,"2_29","prime_negative",4,3,0,399,FALSE,0.0138888888888889,"include",72,"include"
"613","23.06.22",12:42:40,510787584,"2_30","prime_positive",2,63,0,477,FALSE,0.0138888888888889,"include",72,"include"
"614","23.06.22",12:42:40,510787584,"2_31","prime_negative",2,23,0,399,FALSE,0.0138888888888889,"include",72,"include"
"615","23.06.22",12:42:40,510787584,"2_32","prime_negative",1,51,1,301,FALSE,0.0138888888888889,"include",72,"include"
"616","23.06.22",12:42:40,510787584,"2_33","prime_negative",3,30,0,201,FALSE,0.0138888888888889,"include",72,"include"
"617","23.06.22",12:42:40,510787584,"2_34","prime_positive",1,57,1,84,TRUE,0.0138888888888889,"include",72,"include"
"618","23.06.22",12:42:40,510787584,"2_35","prime_positive",4,18,0,118,FALSE,0.0138888888888889,"include",72,"include"
"619","23.06.22",12:42:40,510787584,"2_36","prime_negative",3,14,0,144,FALSE,0.0138888888888889,"include",72,"include"
"620","23.06.22",12:42:40,510787584,"2_37","prime_positive",1,21,0,335,FALSE,0.0138888888888889,"include",72,"include"
"621","23.06.22",12:42:40,510787584,"2_38","prime_negative",4,65,1,346,FALSE,0.0138888888888889,"include",72,"include"
"622","23.06.22",12:42:40,510787584,"2_39","prime_positive",3,15,0,513,FALSE,0.0138888888888889,"include",72,"include"
"623","23.06.22",12:42:40,510787584,"2_40","prime_negative",1,69,0,481,FALSE,0.0138888888888889,"include",72,"include"
"624","23.06.22",12:42:40,510787584,"2_41","prime_positive",4,52,1,221,FALSE,0.0138888888888889,"include",72,"include"
"625","23.06.22",12:42:40,510787584,"2_42","prime_positive",2,1,0,191,FALSE,0.0138888888888889,"include",72,"include"
"626","23.06.22",12:42:40,510787584,"2_43","prime_positive",1,48,0,495,FALSE,0.0138888888888889,"include",72,"include"
"627","23.06.22",12:42:40,510787584,"2_44","prime_positive",2,62,1,432,FALSE,0.0138888888888889,"include",72,"include"
"628","23.06.22",12:42:40,510787584,"2_45","prime_negative",2,19,0,383,FALSE,0.0138888888888889,"include",72,"include"
"629","23.06.22",12:42:40,510787584,"2_46","prime_positive",3,25,1,256,FALSE,0.0138888888888889,"include",72,"include"
"630","23.06.22",12:42:40,510787584,"2_47","prime_positive",4,28,0,123,FALSE,0.0138888888888889,"include",72,"include"
"631","23.06.22",12:42:40,510787584,"2_48","prime_negative",1,67,1,250,FALSE,0.0138888888888889,"include",72,"include"
"632","23.06.22",12:42:40,510787584,"2_49","prime_positive",1,68,0,157,FALSE,0.0138888888888889,"include",72,"include"
"633","23.06.22",12:42:40,510787584,"2_50","prime_negative",3,34,1,222,FALSE,0.0138888888888889,"include",72,"include"
"634","23.06.22",12:42:40,510787584,"2_51","prime_negative",4,7,0,175,FALSE,0.0138888888888889,"include",72,"include"
"635","23.06.22",12:42:40,510787584,"2_52","prime_negative",2,2,1,251,FALSE,0.0138888888888889,"include",72,"include"
"636","23.06.22",12:42:40,510787584,"2_53","prime_negative",4,22,0,270,FALSE,0.0138888888888889,"include",72,"include"
"637","23.06.22",12:42:40,510787584,"2_54","prime_negative",3,37,0,129,FALSE,0.0138888888888889,"include",72,"include"
"638","23.06.22",12:42:40,510787584,"2_55","prime_negative",2,42,1,206,FALSE,0.0138888888888889,"include",72,"include"
"639","23.06.22",12:42:40,510787584,"2_56","prime_positive",2,49,0,565,FALSE,0.0138888888888889,"include",72,"include"
"640","23.06.22",12:42:40,510787584,"2_57","prime_negative",1,45,0,517,FALSE,0.0138888888888889,"include",72,"include"
"641","23.06.22",12:42:40,510787584,"2_58","prime_negative",3,43,0,242,FALSE,0.0138888888888889,"include",72,"include"
"642","23.06.22",12:42:40,510787584,"2_59","prime_positive",4,40,0,208,FALSE,0.0138888888888889,"include",72,"include"
"643","23.06.22",12:42:40,510787584,"2_60","prime_negative",4,47,0,287,FALSE,0.0138888888888889,"include",72,"include"
"644","23.06.22",12:42:40,510787584,"2_61","prime_positive",3,61,0,296,FALSE,0.0138888888888889,"include",72,"include"
"645","23.06.22",12:42:40,510787584,"2_62","prime_negative",2,33,0,450,FALSE,0.0138888888888889,"include",72,"include"
"646","23.06.22",12:42:40,510787584,"2_63","prime_positive",1,20,0,415,FALSE,0.0138888888888889,"include",72,"include"
"647","23.06.22",12:42:40,510787584,"2_64","prime_positive",3,44,0,307,FALSE,0.0138888888888889,"include",72,"include"
"648","23.06.22",12:42:40,510787584,"2_65","prime_negative",1,49,0,226,FALSE,0.0138888888888889,"include",72,"include"
"649","23.06.22",12:42:40,510787584,"2_66","prime_negative",3,8,0,167,FALSE,0.0138888888888889,"include",72,"include"
"650","23.06.22",12:42:40,510787584,"2_67","prime_negative",2,11,0,306,FALSE,0.0138888888888889,"include",72,"include"
"651","23.06.22",12:42:40,510787584,"2_68","prime_negative",4,65,0,141,FALSE,0.0138888888888889,"include",72,"include"
"652","23.06.22",12:42:40,510787584,"2_69","prime_positive",4,33,0,103,FALSE,0.0138888888888889,"include",72,"include"
"653","23.06.22",12:42:40,510787584,"2_70","prime_negative",1,23,0,307,FALSE,0.0138888888888889,"include",72,"include"
"654","23.06.22",12:42:40,510787584,"2_71","prime_negative",4,56,0,297,FALSE,0.0138888888888889,"include",72,"include"
"655","23.06.22",12:42:40,510787584,"2_72","prime_positive",2,41,0,143,FALSE,0.0138888888888889,"include",72,"include"
"656","23.06.22",12:42:40,510787584,"2_73","prime_positive",4,16,0,276,FALSE,0.0138888888888889,"include",72,"include"
"657","23.06.22",12:40:44,684265529,"2_2","prime_negative",3,10,1,1679,FALSE,0,"include",72,"include"
"658","23.06.22",12:40:44,684265529,"2_3","prime_positive",1,25,0,1287,FALSE,0,"include",72,"include"
"659","23.06.22",12:40:44,684265529,"2_4","prime_positive",2,15,1,2953,FALSE,0,"include",72,"include"
"660","23.06.22",12:40:44,684265529,"2_5","prime_negative",2,51,0,1788,FALSE,0,"include",72,"include"
"661","23.06.22",12:40:44,684265529,"2_6","prime_negative",1,33,0,515,FALSE,0,"include",72,"include"
"662","23.06.22",12:40:44,684265529,"2_7","prime_positive",4,14,1,442,FALSE,0,"include",72,"include"
"663","23.06.22",12:40:44,684265529,"2_8","prime_positive",1,68,1,302,FALSE,0,"include",72,"include"
"664","23.06.22",12:40:44,684265529,"2_9","prime_negative",3,6,0,444,FALSE,0,"include",72,"include"
"665","23.06.22",12:40:44,684265529,"2_10","prime_negative",4,55,1,805,FALSE,0,"include",72,"include"
"666","23.06.22",12:40:44,684265529,"2_11","prime_positive",3,5,1,303,FALSE,0,"include",72,"include"
"667","23.06.22",12:40:44,684265529,"2_12","prime_positive",2,53,1,1309,FALSE,0,"include",72,"include"
"668","23.06.22",12:40:44,684265529,"2_13","prime_negative",2,69,1,843,FALSE,0,"include",72,"include"
"669","23.06.22",12:40:44,684265529,"2_14","prime_negative",1,59,1,452,FALSE,0,"include",72,"include"
"670","23.06.22",12:40:44,684265529,"2_15","prime_negative",1,43,1,1457,FALSE,0,"include",72,"include"
"671","23.06.22",12:40:44,684265529,"2_16","prime_positive",4,71,1,824,FALSE,0,"include",72,"include"
"672","23.06.22",12:40:44,684265529,"2_17","prime_positive",2,46,1,1316,FALSE,0,"include",72,"include"
"673","23.06.22",12:40:44,684265529,"2_18","prime_positive",1,26,1,2254,FALSE,0,"include",72,"include"
"674","23.06.22",12:40:44,684265529,"2_19","prime_negative",4,31,0,490,FALSE,0,"include",72,"include"
"675","23.06.22",12:40:44,684265529,"2_20","prime_negative",2,2,1,687,FALSE,0,"include",72,"include"
"676","23.06.22",12:40:44,684265529,"2_21","prime_positive",4,48,1,530,FALSE,0,"include",72,"include"
"677","23.06.22",12:40:44,684265529,"2_22","prime_positive",3,38,1,674,FALSE,0,"include",72,"include"
"678","23.06.22",12:40:44,684265529,"2_23","prime_negative",3,19,0,1223,FALSE,0,"include",72,"include"
"679","23.06.22",12:40:44,684265529,"2_24","prime_positive",3,67,1,646,FALSE,0,"include",72,"include"
"680","23.06.22",12:40:44,684265529,"2_25","prime_negative",3,27,0,145,FALSE,0,"include",72,"include"
"681","23.06.22",12:40:44,684265529,"2_26","prime_positive",1,34,1,296,FALSE,0,"include",72,"include"
"682","23.06.22",12:40:44,684265529,"2_27","prime_negative",2,42,0,1072,FALSE,0,"include",72,"include"
"683","23.06.22",12:40:44,684265529,"2_28","prime_positive",2,24,1,418,FALSE,0,"include",72,"include"
"684","23.06.22",12:40:44,684265529,"2_29","prime_positive",4,60,1,165,FALSE,0,"include",72,"include"
"685","23.06.22",12:40:44,684265529,"2_30","prime_negative",4,16,1,749,FALSE,0,"include",72,"include"
"686","23.06.22",12:40:44,684265529,"2_31","prime_negative",1,58,0,285,FALSE,0,"include",72,"include"
"687","23.06.22",12:40:44,684265529,"2_32","prime_negative",4,7,1,711,FALSE,0,"include",72,"include"
"688","23.06.22",12:40:44,684265529,"2_33","prime_positive",2,50,0,940,FALSE,0,"include",72,"include"
"689","23.06.22",12:40:44,684265529,"2_34","prime_negative",1,72,1,487,FALSE,0,"include",72,"include"
"690","23.06.22",12:40:44,684265529,"2_35","prime_positive",3,22,1,544,FALSE,0,"include",72,"include"
"691","23.06.22",12:40:44,684265529,"2_36","prime_negative",2,3,0,197,FALSE,0,"include",72,"include"
"692","23.06.22",12:40:44,684265529,"2_37","prime_positive",1,21,1,368,FALSE,0,"include",72,"include"
"693","23.06.22",12:40:44,684265529,"2_38","prime_positive",4,70,0,900,FALSE,0,"include",72,"include"
"694","23.06.22",12:40:44,684265529,"2_39","prime_positive",4,35,0,157,FALSE,0,"include",72,"include"
"695","23.06.22",12:40:44,684265529,"2_40","prime_negative",3,30,0,643,FALSE,0,"include",72,"include"
"696","23.06.22",12:40:44,684265529,"2_41","prime_positive",1,9,1,246,FALSE,0,"include",72,"include"
"697","23.06.22",12:40:44,684265529,"2_42","prime_positive",3,56,1,2170,FALSE,0,"include",72,"include"
"698","23.06.22",12:40:44,684265529,"2_43","prime_positive",2,54,0,785,FALSE,0,"include",72,"include"
"699","23.06.22",12:40:44,684265529,"2_44","prime_negative",4,12,1,1534,FALSE,0,"include",72,"include"
"700","23.06.22",12:40:44,684265529,"2_45","prime_negative",1,62,1,682,FALSE,0,"include",72,"include"
"701","23.06.22",12:40:44,684265529,"2_46","prime_positive",2,32,0,567,FALSE,0,"include",72,"include"
"702","23.06.22",12:40:44,684265529,"2_47","prime_positive",4,41,0,1670,FALSE,0,"include",72,"include"
"703","23.06.22",12:40:44,684265529,"2_48","prime_positive",1,57,0,769,FALSE,0,"include",72,"include"
"704","23.06.22",12:40:44,684265529,"2_49","prime_positive",3,47,0,404,FALSE,0,"include",72,"include"
"705","23.06.22",12:40:44,684265529,"2_50","prime_positive",3,66,1,554,FALSE,0,"include",72,"include"
"706","23.06.22",12:40:44,684265529,"2_51","prime_negative",3,64,1,297,FALSE,0,"include",72,"include"
"707","23.06.22",12:40:44,684265529,"2_52","prime_positive",1,28,0,254,FALSE,0,"include",72,"include"
"708","23.06.22",12:40:44,684265529,"2_53","prime_negative",2,8,0,101,FALSE,0,"include",72,"include"
"709","23.06.22",12:40:44,684265529,"2_54","prime_negative",1,63,1,438,FALSE,0,"include",72,"include"
"710","23.06.22",12:40:44,684265529,"2_55","prime_negative",2,23,1,506,FALSE,0,"include",72,"include"
"711","23.06.22",12:40:44,684265529,"2_56","prime_positive",2,39,0,247,FALSE,0,"include",72,"include"
"712","23.06.22",12:40:44,684265529,"2_57","prime_positive",4,1,1,1431,FALSE,0,"include",72,"include"
"713","23.06.22",12:40:44,684265529,"2_58","prime_negative",4,65,1,107,FALSE,0,"include",72,"include"
"714","23.06.22",12:40:44,684265529,"2_59","prime_negative",3,44,0,842,FALSE,0,"include",72,"include"
"715","23.06.22",12:40:44,684265529,"2_60","prime_negative",4,37,1,429,FALSE,0,"include",72,"include"
"716","23.06.22",12:40:44,684265529,"2_61","prime_negative",3,49,0,395,FALSE,0,"include",72,"include"
"717","23.06.22",12:40:44,684265529,"2_62","prime_negative",2,13,0,652,FALSE,0,"include",72,"include"
"718","23.06.22",12:40:44,684265529,"2_63","prime_positive",2,52,1,576,FALSE,0,"include",72,"include"
"719","23.06.22",12:40:44,684265529,"2_64","prime_negative",1,47,0,413,FALSE,0,"include",72,"include"
"720","23.06.22",12:40:44,684265529,"2_65","prime_negative",2,19,1,237,FALSE,0,"include",72,"include"
"721","23.06.22",12:40:44,684265529,"2_66","prime_positive",4,11,1,165,FALSE,0,"include",72,"include"
"722","23.06.22",12:40:44,684265529,"2_67","prime_positive",1,23,0,639,FALSE,0,"include",72,"include"
"723","23.06.22",12:40:44,684265529,"2_68","prime_negative",1,43,1,1424,FALSE,0,"include",72,"include"
"724","23.06.22",12:40:44,684265529,"2_69","prime_positive",3,28,1,725,FALSE,0,"include",72,"include"
"725","23.06.22",12:40:44,684265529,"2_70","prime_negative",4,39,1,853,FALSE,0,"include",72,"include"
"726","23.06.22",12:40:44,684265529,"2_71","prime_negative",3,24,1,717,FALSE,0,"include",72,"include"
"727","23.06.22",12:40:44,684265529,"2_72","prime_negative",3,65,0,403,FALSE,0,"include",72,"include"
"728","23.06.22",12:40:44,684265529,"2_73","prime_positive",1,30,0,464,FALSE,0,"include",72,"include"
"729","23.06.22",04:40:53,47022865,"2_2","prime_negative",4,6,1,1131,FALSE,0,"include",72,"include"
"730","23.06.22",04:40:53,47022865,"2_3","prime_positive",1,41,1,979,FALSE,0,"include",72,"include"
"731","23.06.22",04:40:53,47022865,"2_4","prime_negative",1,11,1,1456,FALSE,0,"include",72,"include"
"732","23.06.22",04:40:53,47022865,"2_5","prime_negative",2,4,1,966,FALSE,0,"include",72,"include"
"733","23.06.22",04:40:53,47022865,"2_6","prime_negative",4,48,0,1041,FALSE,0,"include",72,"include"
"734","23.06.22",04:40:53,47022865,"2_7","prime_negative",1,61,0,907,FALSE,0,"include",72,"include"
"735","23.06.22",04:40:53,47022865,"2_8","prime_positive",3,57,0,1194,FALSE,0,"include",72,"include"
"736","23.06.22",04:40:53,47022865,"2_9","prime_positive",2,42,1,764,FALSE,0,"include",72,"include"
"737","23.06.22",04:40:53,47022865,"2_10","prime_positive",4,45,1,1378,FALSE,0,"include",72,"include"
"738","23.06.22",04:40:53,47022865,"2_11","prime_negative",3,32,1,1628,FALSE,0,"include",72,"include"
"739","23.06.22",04:40:53,47022865,"2_12","prime_negative",2,36,1,829,FALSE,0,"include",72,"include"
"740","23.06.22",04:40:53,47022865,"2_13","prime_positive",3,49,1,735,FALSE,0,"include",72,"include"
"741","23.06.22",04:40:53,47022865,"2_14","prime_negative",4,70,0,452,FALSE,0,"include",72,"include"
"742","23.06.22",04:40:53,47022865,"2_15","prime_positive",2,64,0,1034,FALSE,0,"include",72,"include"
"743","23.06.22",04:40:53,47022865,"2_16","prime_positive",1,16,1,659,FALSE,0,"include",72,"include"
"744","23.06.22",04:40:53,47022865,"2_17","prime_positive",1,26,1,499,FALSE,0,"include",72,"include"
"745","23.06.22",04:40:53,47022865,"2_18","prime_positive",4,60,0,1059,FALSE,0,"include",72,"include"
"746","23.06.22",04:40:53,47022865,"2_19","prime_negative",1,3,1,1067,FALSE,0,"include",72,"include"
"747","23.06.22",04:40:53,47022865,"2_20","prime_negative",2,67,0,1657,FALSE,0,"include",72,"include"
"748","23.06.22",04:40:53,47022865,"2_21","prime_positive",2,5,1,743,FALSE,0,"include",72,"include"
"749","23.06.22",04:40:53,47022865,"2_22","prime_negative",3,66,1,591,FALSE,0,"include",72,"include"
"750","23.06.22",04:40:53,47022865,"2_23","prime_negative",3,24,1,974,FALSE,0,"include",72,"include"
"751","23.06.22",04:40:53,47022865,"2_24","prime_positive",3,7,0,785,FALSE,0,"include",72,"include"
"752","23.06.22",04:40:53,47022865,"2_25","prime_negative",4,50,0,1020,FALSE,0,"include",72,"include"
"753","23.06.22",04:40:53,47022865,"2_26","prime_negative",2,65,1,1447,FALSE,0,"include",72,"include"
"754","23.06.22",04:40:53,47022865,"2_27","prime_negative",1,8,1,797,FALSE,0,"include",72,"include"
"755","23.06.22",04:40:53,47022865,"2_28","prime_positive",1,13,1,678,FALSE,0,"include",72,"include"
"756","23.06.22",04:40:53,47022865,"2_29","prime_negative",1,63,0,709,FALSE,0,"include",72,"include"
"757","23.06.22",04:40:53,47022865,"2_30","prime_positive",3,1,1,653,FALSE,0,"include",72,"include"
"758","23.06.22",04:40:53,47022865,"2_31","prime_positive",4,56,1,770,FALSE,0,"include",72,"include"
"759","23.06.22",04:40:53,47022865,"2_32","prime_negative",2,58,1,905,FALSE,0,"include",72,"include"
"760","23.06.22",04:40:53,47022865,"2_33","prime_positive",2,72,1,949,FALSE,0,"include",72,"include"
"761","23.06.22",04:40:53,47022865,"2_34","prime_positive",3,51,1,992,FALSE,0,"include",72,"include"
"762","23.06.22",04:40:53,47022865,"2_35","prime_positive",4,40,0,850,FALSE,0,"include",72,"include"
"763","23.06.22",04:40:53,47022865,"2_36","prime_positive",1,35,0,1404,FALSE,0,"include",72,"include"
"764","23.06.22",04:40:53,47022865,"2_37","prime_positive",2,28,1,1204,FALSE,0,"include",72,"include"
"765","23.06.22",04:40:53,47022865,"2_38","prime_negative",3,2,1,1490,FALSE,0,"include",72,"include"
"766","23.06.22",04:40:53,47022865,"2_39","prime_negative",4,9,1,1034,FALSE,0,"include",72,"include"
"767","23.06.22",04:40:53,47022865,"2_40","prime_negative",1,39,1,772,FALSE,0,"include",72,"include"
"768","23.06.22",04:40:53,47022865,"2_41","prime_positive",1,53,0,648,FALSE,0,"include",72,"include"
"769","23.06.22",04:40:53,47022865,"2_42","prime_negative",4,38,1,1020,FALSE,0,"include",72,"include"
"770","23.06.22",04:40:53,47022865,"2_43","prime_positive",3,46,1,783,FALSE,0,"include",72,"include"
"771","23.06.22",04:40:53,47022865,"2_44","prime_positive",2,31,0,606,FALSE,0,"include",72,"include"
"772","23.06.22",04:40:53,47022865,"2_45","prime_positive",4,52,0,633,FALSE,0,"include",72,"include"
"773","23.06.22",04:40:53,47022865,"2_46","prime_positive",3,55,1,2770,FALSE,0,"include",72,"include"
"774","23.06.22",04:40:53,47022865,"2_47","prime_negative",3,54,1,825,FALSE,0,"include",72,"include"
"775","23.06.22",04:40:53,47022865,"2_48","prime_negative",2,71,0,1663,FALSE,0,"include",72,"include"
"776","23.06.22",04:40:53,47022865,"2_49","prime_negative",1,25,1,2159,FALSE,0,"include",72,"include"
"777","23.06.22",04:40:53,47022865,"2_50","prime_positive",2,15,1,763,FALSE,0,"include",72,"include"
"778","23.06.22",04:40:53,47022865,"2_51","prime_positive",4,47,1,776,FALSE,0,"include",72,"include"
"779","23.06.22",04:40:53,47022865,"2_52","prime_negative",3,17,1,741,FALSE,0,"include",72,"include"
"780","23.06.22",04:40:53,47022865,"2_53","prime_positive",1,68,1,869,FALSE,0,"include",72,"include"
"781","23.06.22",04:40:53,47022865,"2_54","prime_negative",4,10,0,736,FALSE,0,"include",72,"include"
"782","23.06.22",04:40:53,47022865,"2_55","prime_positive",4,14,0,893,FALSE,0,"include",72,"include"
"783","23.06.22",04:40:53,47022865,"2_56","prime_negative",2,34,0,1033,FALSE,0,"include",72,"include"
"784","23.06.22",04:40:53,47022865,"2_57","prime_negative",3,23,1,775,FALSE,0,"include",72,"include"
"785","23.06.22",04:40:53,47022865,"2_58","prime_positive",2,44,0,854,FALSE,0,"include",72,"include"
"786","23.06.22",04:40:53,47022865,"2_59","prime_negative",1,37,1,640,FALSE,0,"include",72,"include"
"787","23.06.22",04:40:53,47022865,"2_60","prime_negative",4,27,1,999,FALSE,0,"include",72,"include"
"788","23.06.22",04:40:53,47022865,"2_61","prime_negative",2,18,0,701,FALSE,0,"include",72,"include"
"789","23.06.22",04:40:53,47022865,"2_62","prime_negative",2,30,0,872,FALSE,0,"include",72,"include"
"790","23.06.22",04:40:53,47022865,"2_63","prime_positive",1,21,0,587,FALSE,0,"include",72,"include"
"791","23.06.22",04:40:53,47022865,"2_64","prime_positive",3,28,1,543,FALSE,0,"include",72,"include"
"792","23.06.22",04:40:53,47022865,"2_65","prime_negative",4,34,0,536,FALSE,0,"include",72,"include"
"793","23.06.22",04:40:53,47022865,"2_66","prime_negative",3,23,1,1209,FALSE,0,"include",72,"include"
"794","23.06.22",04:40:53,47022865,"2_67","prime_positive",4,20,1,747,FALSE,0,"include",72,"include"
"795","23.06.22",04:40:53,47022865,"2_68","prime_negative",1,10,1,845,FALSE,0,"include",72,"include"
"796","23.06.22",04:40:53,47022865,"2_69","prime_positive",1,50,1,665,FALSE,0,"include",72,"include"
"797","23.06.22",04:40:53,47022865,"2_70","prime_positive",3,39,1,556,FALSE,0,"include",72,"include"
"798","23.06.22",04:40:53,47022865,"2_71","prime_negative",1,38,1,666,FALSE,0,"include",72,"include"
"799","23.06.22",04:40:53,47022865,"2_72","prime_positive",2,12,0,827,FALSE,0,"include",72,"include"
"800","23.06.22",04:40:53,47022865,"2_73","prime_positive",4,70,0,989,FALSE,0,"include",72,"include"
"801","23.06.22",07:41:46,199802590,"2_2","prime_positive",3,28,1,931,FALSE,0,"include",72,"include"
"802","23.06.22",07:41:46,199802590,"2_3","prime_negative",2,53,1,988,FALSE,0,"include",72,"include"
"803","23.06.22",07:41:46,199802590,"2_4","prime_positive",4,26,1,762,FALSE,0,"include",72,"include"
"804","23.06.22",07:41:46,199802590,"2_5","prime_negative",3,59,0,1114,FALSE,0,"include",72,"include"
"805","23.06.22",07:41:46,199802590,"2_6","prime_positive",2,61,0,883,FALSE,0,"include",72,"include"
"806","23.06.22",07:41:46,199802590,"2_7","prime_negative",4,46,0,854,FALSE,0,"include",72,"include"
"807","23.06.22",07:41:46,199802590,"2_8","prime_negative",4,41,1,865,FALSE,0,"include",72,"include"
"808","23.06.22",07:41:46,199802590,"2_9","prime_positive",4,44,1,996,FALSE,0,"include",72,"include"
"809","23.06.22",07:41:46,199802590,"2_10","prime_negative",2,32,1,706,FALSE,0,"include",72,"include"
"810","23.06.22",07:41:46,199802590,"2_11","prime_negative",3,48,0,212,FALSE,0,"include",72,"include"
"811","23.06.22",07:41:46,199802590,"2_12","prime_positive",1,3,1,649,FALSE,0,"include",72,"include"
"812","23.06.22",07:41:46,199802590,"2_13","prime_negative",1,4,1,645,FALSE,0,"include",72,"include"
"813","23.06.22",07:41:46,199802590,"2_14","prime_positive",3,35,1,593,FALSE,0,"include",72,"include"
"814","23.06.22",07:41:46,199802590,"2_15","prime_negative",1,42,1,511,FALSE,0,"include",72,"include"
"815","23.06.22",07:41:46,199802590,"2_16","prime_positive",2,24,1,472,FALSE,0,"include",72,"include"
"816","23.06.22",07:41:46,199802590,"2_17","prime_negative",4,63,0,380,FALSE,0,"include",72,"include"
"817","23.06.22",07:41:46,199802590,"2_18","prime_negative",3,62,1,235,FALSE,0,"include",72,"include"
"818","23.06.22",07:41:46,199802590,"2_19","prime_negative",2,14,1,320,FALSE,0,"include",72,"include"
"819","23.06.22",07:41:46,199802590,"2_20","prime_positive",1,52,1,377,FALSE,0,"include",72,"include"
"820","23.06.22",07:41:46,199802590,"2_21","prime_positive",4,58,1,320,FALSE,0,"include",72,"include"
"821","23.06.22",07:41:46,199802590,"2_22","prime_positive",2,25,1,330,FALSE,0,"include",72,"include"
"822","23.06.22",07:41:46,199802590,"2_23","prime_negative",2,13,1,258,FALSE,0,"include",72,"include"
"823","23.06.22",07:41:46,199802590,"2_24","prime_positive",3,7,1,414,FALSE,0,"include",72,"include"
"824","23.06.22",07:41:46,199802590,"2_25","prime_positive",3,22,0,1036,FALSE,0,"include",72,"include"
"825","23.06.22",07:41:46,199802590,"2_26","prime_negative",3,56,1,200,FALSE,0,"include",72,"include"
"826","23.06.22",07:41:46,199802590,"2_27","prime_negative",4,33,1,430,FALSE,0,"include",72,"include"
"827","23.06.22",07:41:46,199802590,"2_28","prime_positive",1,9,1,523,FALSE,0,"include",72,"include"
"828","23.06.22",07:41:46,199802590,"2_29","prime_positive",4,16,1,340,FALSE,0,"include",72,"include"
"829","23.06.22",07:41:46,199802590,"2_30","prime_positive",2,11,1,404,FALSE,0,"include",72,"include"
"830","23.06.22",07:41:46,199802590,"2_31","prime_positive",1,36,1,410,FALSE,0,"include",72,"include"
"831","23.06.22",07:41:46,199802590,"2_32","prime_negative",1,2,1,440,FALSE,0,"include",72,"include"
"832","23.06.22",07:41:46,199802590,"2_33","prime_negative",2,64,1,468,FALSE,0,"include",72,"include"
"833","23.06.22",07:41:46,199802590,"2_34","prime_negative",4,70,1,312,FALSE,0,"include",72,"include"
"834","23.06.22",07:41:46,199802590,"2_35","prime_negative",1,21,1,457,FALSE,0,"include",72,"include"
"835","23.06.22",07:41:46,199802590,"2_36","prime_negative",3,20,1,389,FALSE,0,"include",72,"include"
"836","23.06.22",07:41:46,199802590,"2_37","prime_negative",3,67,1,636,FALSE,0,"include",72,"include"
"837","23.06.22",07:41:46,199802590,"2_38","prime_negative",4,66,1,376,FALSE,0,"include",72,"include"
"838","23.06.22",07:41:46,199802590,"2_39","prime_positive",4,15,1,399,FALSE,0,"include",72,"include"
"839","23.06.22",07:41:46,199802590,"2_40","prime_negative",2,50,0,309,FALSE,0,"include",72,"include"
"840","23.06.22",07:41:46,199802590,"2_41","prime_positive",2,55,1,223,FALSE,0,"include",72,"include"
"841","23.06.22",07:41:46,199802590,"2_42","prime_negative",1,60,1,404,FALSE,0,"include",72,"include"
"842","23.06.22",07:41:46,199802590,"2_43","prime_positive",3,6,1,1138,FALSE,0,"include",72,"include"
"843","23.06.22",07:41:46,199802590,"2_44","prime_negative",2,30,1,658,FALSE,0,"include",72,"include"
"844","23.06.22",07:41:46,199802590,"2_45","prime_negative",3,5,0,430,FALSE,0,"include",72,"include"
"845","23.06.22",07:41:46,199802590,"2_46","prime_positive",2,17,1,235,FALSE,0,"include",72,"include"
"846","23.06.22",07:41:46,199802590,"2_47","prime_positive",1,68,1,423,FALSE,0,"include",72,"include"
"847","23.06.22",07:41:46,199802590,"2_48","prime_negative",4,51,1,285,FALSE,0,"include",72,"include"
"848","23.06.22",07:41:46,199802590,"2_49","prime_negative",1,18,1,311,FALSE,0,"include",72,"include"
"849","23.06.22",07:41:46,199802590,"2_50","prime_positive",3,54,1,321,FALSE,0,"include",72,"include"
"850","23.06.22",07:41:46,199802590,"2_51","prime_negative",2,69,1,377,FALSE,0,"include",72,"include"
"851","23.06.22",07:41:46,199802590,"2_52","prime_positive",4,1,1,504,FALSE,0,"include",72,"include"
"852","23.06.22",07:41:46,199802590,"2_53","prime_negative",1,12,1,481,FALSE,0,"include",72,"include"
"853","23.06.22",07:41:46,199802590,"2_54","prime_negative",3,72,1,508,FALSE,0,"include",72,"include"
"854","23.06.22",07:41:46,199802590,"2_55","prime_negative",4,38,1,421,FALSE,0,"include",72,"include"
"855","23.06.22",07:41:46,199802590,"2_56","prime_positive",4,45,1,466,FALSE,0,"include",72,"include"
"856","23.06.22",07:41:46,199802590,"2_57","prime_positive",2,71,1,461,FALSE,0,"include",72,"include"
"857","23.06.22",07:41:46,199802590,"2_58","prime_positive",3,39,0,505,FALSE,0,"include",72,"include"
"858","23.06.22",07:41:46,199802590,"2_59","prime_positive",1,43,1,435,FALSE,0,"include",72,"include"
"859","23.06.22",07:41:46,199802590,"2_60","prime_positive",1,19,1,879,FALSE,0,"include",72,"include"
"860","23.06.22",07:41:46,199802590,"2_61","prime_negative",2,8,1,530,FALSE,0,"include",72,"include"
"861","23.06.22",07:41:46,199802590,"2_62","prime_positive",2,34,1,419,FALSE,0,"include",72,"include"
"862","23.06.22",07:41:46,199802590,"2_63","prime_negative",3,10,1,431,FALSE,0,"include",72,"include"
"863","23.06.22",07:41:46,199802590,"2_64","prime_positive",3,72,1,564,FALSE,0,"include",72,"include"
"864","23.06.22",07:41:46,199802590,"2_65","prime_negative",1,10,1,363,FALSE,0,"include",72,"include"
"865","23.06.22",07:41:46,199802590,"2_66","prime_negative",4,8,1,387,FALSE,0,"include",72,"include"
"866","23.06.22",07:41:46,199802590,"2_67","prime_positive",4,11,0,585,FALSE,0,"include",72,"include"
"867","23.06.22",07:41:46,199802590,"2_68","prime_positive",2,13,1,423,FALSE,0,"include",72,"include"
"868","23.06.22",07:41:46,199802590,"2_69","prime_positive",4,61,1,413,FALSE,0,"include",72,"include"
"869","23.06.22",07:41:46,199802590,"2_70","prime_positive",1,28,1,602,FALSE,0,"include",72,"include"
"870","23.06.22",07:41:46,199802590,"2_71","prime_positive",3,17,1,424,FALSE,0,"include",72,"include"
"871","23.06.22",07:41:46,199802590,"2_72","prime_positive",2,19,1,821,FALSE,0,"include",72,"include"
"872","23.06.22",07:41:46,199802590,"2_73","prime_negative",1,2,1,1386,FALSE,0,"include",72,"include"
"873","23.06.22",12:45:17,295696078,"2_2","prime_negative",3,34,1,1417,FALSE,0,"include",72,"include"
"874","23.06.22",12:45:17,295696078,"2_3","prime_negative",2,58,1,1312,FALSE,0,"include",72,"include"
"875","23.06.22",12:45:17,295696078,"2_4","prime_negative",4,19,1,709,FALSE,0,"include",72,"include"
"876","23.06.22",12:45:17,295696078,"2_5","prime_positive",3,15,1,876,FALSE,0,"include",72,"include"
"877","23.06.22",12:45:17,295696078,"2_6","prime_negative",1,57,1,760,FALSE,0,"include",72,"include"
"878","23.06.22",12:45:17,295696078,"2_7","prime_positive",4,38,1,686,FALSE,0,"include",72,"include"
"879","23.06.22",12:45:17,295696078,"2_8","prime_negative",3,29,1,811,FALSE,0,"include",72,"include"
"880","23.06.22",12:45:17,295696078,"2_9","prime_negative",2,46,1,529,FALSE,0,"include",72,"include"
"881","23.06.22",12:45:17,295696078,"2_10","prime_negative",4,69,1,773,FALSE,0,"include",72,"include"
"882","23.06.22",12:45:17,295696078,"2_11","prime_negative",1,61,1,717,FALSE,0,"include",72,"include"
"883","23.06.22",12:45:17,295696078,"2_12","prime_negative",2,72,0,1264,FALSE,0,"include",72,"include"
"884","23.06.22",12:45:17,295696078,"2_13","prime_positive",1,31,1,381,FALSE,0,"include",72,"include"
"885","23.06.22",12:45:17,295696078,"2_14","prime_negative",3,70,1,615,FALSE,0,"include",72,"include"
"886","23.06.22",12:45:17,295696078,"2_15","prime_negative",4,65,1,541,FALSE,0,"include",72,"include"
"887","23.06.22",12:45:17,295696078,"2_16","prime_positive",3,3,1,695,FALSE,0,"include",72,"include"
"888","23.06.22",12:45:17,295696078,"2_17","prime_negative",4,50,1,649,FALSE,0,"include",72,"include"
"889","23.06.22",12:45:17,295696078,"2_18","prime_positive",4,68,1,638,FALSE,0,"include",72,"include"
"890","23.06.22",12:45:17,295696078,"2_19","prime_positive",1,7,1,631,FALSE,0,"include",72,"include"
"891","23.06.22",12:45:17,295696078,"2_20","prime_positive",2,47,1,499,FALSE,0,"include",72,"include"
"892","23.06.22",12:45:17,295696078,"2_21","prime_positive",1,22,1,534,FALSE,0,"include",72,"include"
"893","23.06.22",12:45:17,295696078,"2_22","prime_positive",2,41,1,1031,FALSE,0,"include",72,"include"
"894","23.06.22",12:45:17,295696078,"2_23","prime_positive",4,28,1,868,FALSE,0,"include",72,"include"
"895","23.06.22",12:45:17,295696078,"2_24","prime_negative",2,42,1,707,FALSE,0,"include",72,"include"
"896","23.06.22",12:45:17,295696078,"2_25","prime_positive",3,48,1,848,FALSE,0,"include",72,"include"
"897","23.06.22",12:45:17,295696078,"2_26","prime_positive",3,39,1,754,FALSE,0,"include",72,"include"
"898","23.06.22",12:45:17,295696078,"2_27","prime_negative",3,11,1,842,FALSE,0,"include",72,"include"
"899","23.06.22",12:45:17,295696078,"2_28","prime_positive",1,44,0,1768,FALSE,0,"include",72,"include"
"900","23.06.22",12:45:17,295696078,"2_29","prime_positive",4,30,1,950,FALSE,0,"include",72,"include"
"901","23.06.22",12:45:17,295696078,"2_30","prime_negative",1,45,1,902,FALSE,0,"include",72,"include"
"902","23.06.22",12:45:17,295696078,"2_31","prime_negative",1,32,1,698,FALSE,0,"include",72,"include"
"903","23.06.22",12:45:17,295696078,"2_32","prime_negative",3,71,1,668,FALSE,0,"include",72,"include"
"904","23.06.22",12:45:17,295696078,"2_33","prime_positive",2,27,1,786,FALSE,0,"include",72,"include"
"905","23.06.22",12:45:17,295696078,"2_34","prime_negative",4,6,1,617,FALSE,0,"include",72,"include"
"906","23.06.22",12:45:17,295696078,"2_35","prime_positive",4,16,0,896,FALSE,0,"include",72,"include"
"907","23.06.22",12:45:17,295696078,"2_36","prime_positive",1,54,1,686,FALSE,0,"include",72,"include"
"908","23.06.22",12:45:17,295696078,"2_37","prime_positive",2,17,1,571,FALSE,0,"include",72,"include"
"909","23.06.22",12:45:17,295696078,"2_38","prime_positive",3,14,0,739,FALSE,0,"include",72,"include"
"910","23.06.22",12:45:17,295696078,"2_39","prime_negative",2,43,0,1003,FALSE,0,"include",72,"include"
"911","23.06.22",12:45:17,295696078,"2_40","prime_negative",4,66,1,626,FALSE,0,"include",72,"include"
"912","23.06.22",12:45:17,295696078,"2_41","prime_positive",1,5,1,499,FALSE,0,"include",72,"include"
"913","23.06.22",12:45:17,295696078,"2_42","prime_negative",2,33,1,1629,FALSE,0,"include",72,"include"
"914","23.06.22",12:45:17,295696078,"2_43","prime_negative",3,53,1,730,FALSE,0,"include",72,"include"
"915","23.06.22",12:45:17,295696078,"2_44","prime_positive",3,1,1,505,FALSE,0,"include",72,"include"
"916","23.06.22",12:45:17,295696078,"2_45","prime_positive",4,64,1,611,FALSE,0,"include",72,"include"
"917","23.06.22",12:45:17,295696078,"2_46","prime_negative",1,36,1,625,FALSE,0,"include",72,"include"
"918","23.06.22",12:45:17,295696078,"2_47","prime_positive",2,26,1,555,FALSE,0,"include",72,"include"
"919","23.06.22",12:45:17,295696078,"2_48","prime_negative",1,13,0,1075,FALSE,0,"include",72,"include"
"920","23.06.22",12:45:17,295696078,"2_49","prime_positive",3,2,1,713,FALSE,0,"include",72,"include"
"921","23.06.22",12:45:17,295696078,"2_50","prime_positive",1,40,1,719,FALSE,0,"include",72,"include"
"922","23.06.22",12:45:17,295696078,"2_51","prime_positive",2,56,0,1154,FALSE,0,"include",72,"include"
"923","23.06.22",12:45:17,295696078,"2_52","prime_positive",4,37,1,555,FALSE,0,"include",72,"include"
"924","23.06.22",12:45:17,295696078,"2_53","prime_positive",3,4,1,670,FALSE,0,"include",72,"include"
"925","23.06.22",12:45:17,295696078,"2_54","prime_negative",2,60,1,569,FALSE,0,"include",72,"include"
"926","23.06.22",12:45:17,295696078,"2_55","prime_negative",4,12,0,933,FALSE,0,"include",72,"include"
"927","23.06.22",12:45:17,295696078,"2_56","prime_negative",3,23,0,886,FALSE,0,"include",72,"include"
"928","23.06.22",12:45:17,295696078,"2_57","prime_positive",4,24,1,606,FALSE,0,"include",72,"include"
"929","23.06.22",12:45:17,295696078,"2_58","prime_positive",1,49,1,687,FALSE,0,"include",72,"include"
"930","23.06.22",12:45:17,295696078,"2_59","prime_positive",2,59,0,663,FALSE,0,"include",72,"include"
"931","23.06.22",12:45:17,295696078,"2_60","prime_negative",3,18,0,587,FALSE,0,"include",72,"include"
